,success,trial_type,trial_index,time_elapsed,internal_node_id,rt,stimulus,response,trial_id,trial_duration,view_history,exp_stage,block_num,stimulus_duration,condition,cue_letter,choices,correct_response,correct_trial,probe_letter,ITIParams,current_question,current_key_answer,exp_id,attention_check_percent
0,True,fullscreen,0,1678,0.0-0.0,,,,,,,,,,,,,,,,,,,,
1,,html-keyboard-response,1,1794,0.0-1.0-0.0,114.0,"<div class = centerbox><p class = center-block-text>
    
  <p class=center-block-text>
    Welcome! This experiment will take around 17 minutes.
  </p>
  <p class=center-block-text>
    To avoid technical issues,
    please keep the experiment tab (on Chrome or Firefox)
    active and fullscreen for the whole duration of each task.
  </p>
  <p class=center-block-text> Press <i>enter</i> to begin.</p>

    </p></div>",enter,instruction_feedback,180000.0,,,,,,,,,,,,,,,
2,,instructions,2,2996,0.0-1.0-1.0,1201.0,,,instructions,,"[{'page_index': 0, 'viewing_time': 990}, {'page_index': 1, 'viewing_time': 210}]",,,,,,,,,,,,,,
3,,html-keyboard-response,3,3621,0.0-2.0-0.0,622.0,"<div class = bigbox><div class = picture_box><p class = block-text>
    
  <div class = centerbox>
    <p class = center-block-text>Press <i>enter</i> to begin practice.</p>
  </div>

    </font></p></div></div>",enter,practice_feedback,60000.0,,practice,0.0,,,,,,,,,,,,
4,,call-function,4,4628,0.0-2.0-1.0,,,,,,,,,,,,,,,,,,,,
5,,html-keyboard-response,5,5132,0.0-2.0-2.0,,<div class = centerbox><div class = fixation>+</div></div>,,practice_fixation,500.0,,practice,0.0,500.0,,,,,,,,,,,
6,,html-keyboard-response,6,5635,0.0-2.0-3.0,,<div class = centerbox><div class = AX_text>Z</div></div>,,practice_cue,500.0,,practice,0.0,500.0,BY,Z,,,,,,,,,
7,,html-keyboard-response,7,8641,0.0-2.0-4.0,,<div class = centerbox><div class = fixation>+</div></div>,,practice_inter-stimulus,3000.0,,practice,0.0,3000.0,,,,,,,,,,,
8,,html-keyboard-response,8,10147,0.0-2.0-5.0,351.0,<div class = centerbox><div class = AX_text>Z</div></div>,",",practice_probe,1500.0,,practice,0.0,1000.0,BY,,"['.', ',']",",",1,Z,,,,,
9,,html-keyboard-response,9,10651,0.0-2.0-6.0,,<div class = fb_box><div class = center-text><font size =20>Correct!</font></div></div>,,practice_feedback,500.0,,practice,,,,,,,,,,,,,
10,,html-keyboard-response,10,10908,0.0-2.0-7.0,,<div class = centerbox><div class = fixation>+</div></div>,,practice_ITI,250.93497899116434,,practice,0.0,250.93497899116434,,,,,,,"{'min': 0, 'max': 5, 'mean': 0.5}",,,,
11,,call-function,11,10909,0.0-2.0-8.0,,,,,,,,,,,,,,,,,,,,
12,,html-keyboard-response,12,11413,0.0-2.0-9.0,,<div class = centerbox><div class = fixation>+</div></div>,,practice_fixation,500.0,,practice,0.0,500.0,,,,,,,,,,,
13,,html-keyboard-response,13,11917,0.0-2.0-10.0,,<div class = centerbox><div class = AX_text>Q</div></div>,,practice_cue,500.0,,practice,0.0,500.0,BX,Q,,,,,,,,,
14,,html-keyboard-response,14,14919,0.0-2.0-11.0,,<div class = centerbox><div class = fixation>+</div></div>,,practice_inter-stimulus,3000.0,,practice,0.0,3000.0,,,,,,,,,,,
15,,html-keyboard-response,15,16426,0.0-2.0-12.0,408.0,<div class = centerbox><div class = AX_text>X</div></div>,",",practice_probe,1500.0,,practice,0.0,1000.0,BX,,"['.', ',']",",",1,X,,,,,
16,,html-keyboard-response,16,16928,0.0-2.0-13.0,,<div class = fb_box><div class = center-text><font size =20>Correct!</font></div></div>,,practice_feedback,500.0,,practice,,,,,,,,,,,,,
17,,html-keyboard-response,17,17555,0.0-2.0-14.0,,<div class = centerbox><div class = fixation>+</div></div>,,practice_ITI,621.2549655705902,,practice,0.0,621.2549655705902,,,,,,,"{'min': 0, 'max': 5, 'mean': 0.5}",,,,
18,,call-function,18,17556,0.0-2.0-15.0,,,,,,,,,,,,,,,,,,,,
19,,html-keyboard-response,19,18061,0.0-2.0-16.0,,<div class = centerbox><div class = fixation>+</div></div>,,practice_fixation,500.0,,practice,0.0,500.0,,,,,,,,,,,
20,,html-keyboard-response,20,18565,0.0-2.0-17.0,,<div class = centerbox><div class = AX_text>A</div></div>,,practice_cue,500.0,,practice,0.0,500.0,AY,A,,,,,,,,,
21,,html-keyboard-response,21,21569,0.0-2.0-18.0,,<div class = centerbox><div class = fixation>+</div></div>,,practice_inter-stimulus,3000.0,,practice,0.0,3000.0,,,,,,,,,,,
22,,html-keyboard-response,22,23076,0.0-2.0-19.0,632.0,<div class = centerbox><div class = AX_text>L</div></div>,",",practice_probe,1500.0,,practice,0.0,1000.0,AY,,"['.', ',']",",",1,L,,,,,
23,,html-keyboard-response,23,23581,0.0-2.0-20.0,,<div class = fb_box><div class = center-text><font size =20>Correct!</font></div></div>,,practice_feedback,500.0,,practice,,,,,,,,,,,,,
24,,html-keyboard-response,24,24522,0.0-2.0-21.0,,<div class = centerbox><div class = fixation>+</div></div>,,practice_ITI,934.88861552537,,practice,0.0,934.88861552537,,,,,,,"{'min': 0, 'max': 5, 'mean': 0.5}",,,,
25,,call-function,25,24522,0.0-2.0-22.0,,,,,,,,,,,,,,,,,,,,
26,,html-keyboard-response,26,25024,0.0-2.0-23.0,,<div class = centerbox><div class = fixation>+</div></div>,,practice_fixation,500.0,,practice,0.0,500.0,,,,,,,,,,,
27,,html-keyboard-response,27,25530,0.0-2.0-24.0,,<div class = centerbox><div class = AX_text>A</div></div>,,practice_cue,500.0,,practice,0.0,500.0,AX,A,,,,,,,,,
28,,html-keyboard-response,28,28537,0.0-2.0-25.0,,<div class = centerbox><div class = fixation>+</div></div>,,practice_inter-stimulus,3000.0,,practice,0.0,3000.0,,,,,,,,,,,
29,,html-keyboard-response,29,30040,0.0-2.0-26.0,451.0,<div class = centerbox><div class = AX_text>X</div></div>,.,practice_probe,1500.0,,practice,0.0,1000.0,AX,,"['.', ',']",.,1,X,,,,,
30,,html-keyboard-response,30,30543,0.0-2.0-27.0,,<div class = fb_box><div class = center-text><font size =20>Correct!</font></div></div>,,practice_feedback,500.0,,practice,,,,,,,,,,,,,
31,,html-keyboard-response,31,30669,0.0-2.0-28.0,,<div class = centerbox><div class = fixation>+</div></div>,,practice_ITI,122.49505197463479,,practice,0.0,122.49505197463479,,,,,,,"{'min': 0, 'max': 5, 'mean': 0.5}",,,,
32,,call-function,32,30669,0.0-2.0-29.0,,,,,,,,,,,,,,,,,,,,
33,,html-keyboard-response,33,31173,0.0-2.0-30.0,,<div class = centerbox><div class = fixation>+</div></div>,,practice_fixation,500.0,,practice,0.0,500.0,,,,,,,,,,,
34,,html-keyboard-response,34,31680,0.0-2.0-31.0,,<div class = centerbox><div class = AX_text>A</div></div>,,practice_cue,500.0,,practice,0.0,500.0,AX,A,,,,,,,,,
35,,html-keyboard-response,35,34682,0.0-2.0-32.0,,<div class = centerbox><div class = fixation>+</div></div>,,practice_inter-stimulus,3000.0,,practice,0.0,3000.0,,,,,,,,,,,
36,,html-keyboard-response,36,36189,0.0-2.0-33.0,398.0,<div class = centerbox><div class = AX_text>X</div></div>,.,practice_probe,1500.0,,practice,0.0,1000.0,AX,,"['.', ',']",.,1,X,,,,,
37,,html-keyboard-response,37,36692,0.0-2.0-34.0,,<div class = fb_box><div class = center-text><font size =20>Correct!</font></div></div>,,practice_feedback,500.0,,practice,,,,,,,,,,,,,
38,,html-keyboard-response,38,38522,0.0-2.0-35.0,,<div class = centerbox><div class = fixation>+</div></div>,,practice_ITI,1826.8690138322431,,practice,0.0,1826.8690138322431,,,,,,,"{'min': 0, 'max': 5, 'mean': 0.5}",,,,
39,,html-keyboard-response,39,42870,0.0-3.0-0.0,4345.0,"<div class = bigbox><div class = picture_box><p class = block-text>
    
      <div class=""centerbox"">
        <p class=""center-block-text"">We will now start the test portion.</p>
        <p class=""block-text"">Keep your <b>middle finger</b> on the <b>period key (.)</b> and your <b>index finger</b> on the <b>comma key (,)</b></p>
        <p class=""block-text"">Press <i>enter</i> to continue.</p>
      </div>
    </font></p></div></div>",enter,test_feedback,60000.0,,test,0.0,,,,,,,,,,,,
40,,html-keyboard-response,40,46398,0.0-3.0-1.0-0.0,2521.0,,c,test_attention_check,,,test,0.0,,,,,,True,,,<p class='block-text'>Press the key for the third letter of the English alphabet.</p> <div class=block-text>This screen will advance automatically in 1 minute.</div>,67.0,,
41,,call-function,41,46399,0.0-3.0-2.0,,,,,,,,,,,,,,,,,,,,
42,,html-keyboard-response,42,46902,0.0-3.0-3.0,,<div class = centerbox><div class = fixation>+</div></div>,,test_fixation,500.0,,test,0.0,500.0,,,,,,,,,,,
43,,html-keyboard-response,43,47404,0.0-3.0-4.0,,<div class = centerbox><div class = AX_text>A</div></div>,,test_cue,500.0,,test,0.0,500.0,AX,A,,,,,,,,,
44,,html-keyboard-response,44,50411,0.0-3.0-5.0,,<div class = centerbox><div class = fixation>+</div></div>,,test_inter-stimulus,3000.0,,test,0.0,3000.0,,,,,,,,,,,
45,,html-keyboard-response,45,51917,0.0-3.0-6.0,424.0,<div class = centerbox><div class = AX_text>X</div></div>,",",test_trial,1500.0,,test,0.0,1000.0,AX,,"['.', ',']",.,0,X,,,,,
46,,html-keyboard-response,46,52329,0.0-3.0-7.0,,<div class = centerbox><div class = fixation>+</div></div>,,test_ITI,406.03437795019005,,test,0.0,406.03437795019005,,,,,,,"{'min': 0, 'max': 5, 'mean': 0.5}",,,,
47,,call-function,47,52330,0.0-3.0-8.0,,,,,,,,,,,,,,,,,,,,
48,,html-keyboard-response,48,52831,0.0-3.0-9.0,,<div class = centerbox><div class = fixation>+</div></div>,,test_fixation,500.0,,test,0.0,500.0,,,,,,,,,,,
49,,html-keyboard-response,49,53336,0.0-3.0-10.0,,<div class = centerbox><div class = AX_text>A</div></div>,,test_cue,500.0,,test,0.0,500.0,AX,A,,,,,,,,,
50,,html-keyboard-response,50,56340,0.0-3.0-11.0,,<div class = centerbox><div class = fixation>+</div></div>,,test_inter-stimulus,3000.0,,test,0.0,3000.0,,,,,,,,,,,
51,,html-keyboard-response,51,57847,0.0-3.0-12.0,,<div class = centerbox><div class = AX_text>X</div></div>,,test_trial,1500.0,,test,0.0,1000.0,AX,,"['.', ',']",.,0,X,,,,,
52,,html-keyboard-response,52,58325,0.0-3.0-13.0,,<div class = centerbox><div class = fixation>+</div></div>,,test_ITI,473.4835048502262,,test,0.0,473.4835048502262,,,,,,,"{'min': 0, 'max': 5, 'mean': 0.5}",,,,
53,,call-function,53,58326,0.0-3.0-14.0,,,,,,,,,,,,,,,,,,,,
54,,html-keyboard-response,54,58830,0.0-3.0-15.0,,<div class = centerbox><div class = fixation>+</div></div>,,test_fixation,500.0,,test,0.0,500.0,,,,,,,,,,,
55,,html-keyboard-response,55,59334,0.0-3.0-16.0,,<div class = centerbox><div class = AX_text>I</div></div>,,test_cue,500.0,,test,0.0,500.0,BY,I,,,,,,,,,
56,,html-keyboard-response,56,62341,0.0-3.0-17.0,,<div class = centerbox><div class = fixation>+</div></div>,,test_inter-stimulus,3000.0,,test,0.0,3000.0,,,,,,,,,,,
57,,html-keyboard-response,57,63847,0.0-3.0-18.0,,<div class = centerbox><div class = AX_text>L</div></div>,,test_trial,1500.0,,test,0.0,1000.0,BY,,"['.', ',']",",",0,L,,,,,
58,,html-keyboard-response,58,64631,0.0-3.0-19.0,,<div class = centerbox><div class = fixation>+</div></div>,,test_ITI,777.2003142752591,,test,0.0,777.2003142752591,,,,,,,"{'min': 0, 'max': 5, 'mean': 0.5}",,,,
59,,call-function,59,64632,0.0-3.0-20.0,,,,,,,,,,,,,,,,,,,,
60,,html-keyboard-response,60,65135,0.0-3.0-21.0,,<div class = centerbox><div class = fixation>+</div></div>,,test_fixation,500.0,,test,0.0,500.0,,,,,,,,,,,
61,,html-keyboard-response,61,65638,0.0-3.0-22.0,,<div class = centerbox><div class = AX_text>C</div></div>,,test_cue,500.0,,test,0.0,500.0,BX,C,,,,,,,,,
62,,html-keyboard-response,62,68645,0.0-3.0-23.0,,<div class = centerbox><div class = fixation>+</div></div>,,test_inter-stimulus,3000.0,,test,0.0,3000.0,,,,,,,,,,,
63,,html-keyboard-response,63,70152,0.0-3.0-24.0,,<div class = centerbox><div class = AX_text>X</div></div>,,test_trial,1500.0,,test,0.0,1000.0,BX,,"['.', ',']",",",0,X,,,,,
64,,html-keyboard-response,64,70188,0.0-3.0-25.0,,<div class = centerbox><div class = fixation>+</div></div>,,test_ITI,30.985305215696467,,test,0.0,30.985305215696467,,,,,,,"{'min': 0, 'max': 5, 'mean': 0.5}",,,,
65,,call-function,65,70189,0.0-3.0-26.0,,,,,,,,,,,,,,,,,,,,
66,,html-keyboard-response,66,70692,0.0-3.0-27.0,,<div class = centerbox><div class = fixation>+</div></div>,,test_fixation,500.0,,test,0.0,500.0,,,,,,,,,,,
67,,html-keyboard-response,67,71195,0.0-3.0-28.0,,<div class = centerbox><div class = AX_text>A</div></div>,,test_cue,500.0,,test,0.0,500.0,AX,A,,,,,,,,,
68,,html-keyboard-response,68,74202,0.0-3.0-29.0,,<div class = centerbox><div class = fixation>+</div></div>,,test_inter-stimulus,3000.0,,test,0.0,3000.0,,,,,,,,,,,
69,,html-keyboard-response,69,75706,0.0-3.0-30.0,,<div class = centerbox><div class = AX_text>X</div></div>,,test_trial,1500.0,,test,0.0,1000.0,AX,,"['.', ',']",.,0,X,,,,,
70,,html-keyboard-response,70,76142,0.0-3.0-31.0,,<div class = centerbox><div class = fixation>+</div></div>,,test_ITI,430.69282550363033,,test,0.0,430.69282550363033,,,,,,,"{'min': 0, 'max': 5, 'mean': 0.5}",,,,
71,,call-function,71,76143,0.0-3.0-32.0,,,,,,,,,,,,,,,,,,,,
72,,html-keyboard-response,72,76647,0.0-3.0-33.0,,<div class = centerbox><div class = fixation>+</div></div>,,test_fixation,500.0,,test,0.0,500.0,,,,,,,,,,,
73,,html-keyboard-response,73,77152,0.0-3.0-34.0,,<div class = centerbox><div class = AX_text>F</div></div>,,test_cue,500.0,,test,0.0,500.0,BY,F,,,,,,,,,
74,,html-keyboard-response,74,80154,0.0-3.0-35.0,,<div class = centerbox><div class = fixation>+</div></div>,,test_inter-stimulus,3000.0,,test,0.0,3000.0,,,,,,,,,,,
75,,html-keyboard-response,75,81661,0.0-3.0-36.0,,<div class = centerbox><div class = AX_text>C</div></div>,,test_trial,1500.0,,test,0.0,1000.0,BY,,"['.', ',']",",",0,C,,,,,
76,,html-keyboard-response,76,83142,0.0-3.0-37.0,,<div class = centerbox><div class = fixation>+</div></div>,,test_ITI,1474.1456014173639,,test,0.0,1474.1456014173639,,,,,,,"{'min': 0, 'max': 5, 'mean': 0.5}",,,,
77,,call-function,77,83142,0.0-3.0-38.0,,,,,,,,,,,,,,,,,,,,
78,,html-keyboard-response,78,83645,0.0-3.0-39.0,,<div class = centerbox><div class = fixation>+</div></div>,,test_fixation,500.0,,test,0.0,500.0,,,,,,,,,,,
79,,html-keyboard-response,79,84149,0.0-3.0-40.0,,<div class = centerbox><div class = AX_text>A</div></div>,,test_cue,500.0,,test,0.0,500.0,AX,A,,,,,,,,,
80,,html-keyboard-response,80,87155,0.0-3.0-41.0,,<div class = centerbox><div class = fixation>+</div></div>,,test_inter-stimulus,3000.0,,test,0.0,3000.0,,,,,,,,,,,
81,,html-keyboard-response,81,88662,0.0-3.0-42.0,,<div class = centerbox><div class = AX_text>X</div></div>,,test_trial,1500.0,,test,0.0,1000.0,AX,,"['.', ',']",.,0,X,,,,,
82,,html-keyboard-response,82,88729,0.0-3.0-43.0,,<div class = centerbox><div class = fixation>+</div></div>,,test_ITI,64.64168991698517,,test,0.0,64.64168991698517,,,,,,,"{'min': 0, 'max': 5, 'mean': 0.5}",,,,
83,,call-function,83,88729,0.0-3.0-44.0,,,,,,,,,,,,,,,,,,,,
84,,html-keyboard-response,84,89233,0.0-3.0-45.0,,<div class = centerbox><div class = fixation>+</div></div>,,test_fixation,500.0,,test,0.0,500.0,,,,,,,,,,,
85,,html-keyboard-response,85,89737,0.0-3.0-46.0,,<div class = centerbox><div class = AX_text>A</div></div>,,test_cue,500.0,,test,0.0,500.0,AY,A,,,,,,,,,
86,,html-keyboard-response,86,92741,0.0-3.0-47.0,,<div class = centerbox><div class = fixation>+</div></div>,,test_inter-stimulus,3000.0,,test,0.0,3000.0,,,,,,,,,,,
87,,html-keyboard-response,87,94245,0.0-3.0-48.0,,<div class = centerbox><div class = AX_text>C</div></div>,,test_trial,1500.0,,test,0.0,1000.0,AY,,"['.', ',']",",",0,C,,,,,
88,,html-keyboard-response,88,95551,0.0-3.0-49.0,,<div class = centerbox><div class = fixation>+</div></div>,,test_ITI,1303.9517969105555,,test,0.0,1303.9517969105555,,,,,,,"{'min': 0, 'max': 5, 'mean': 0.5}",,,,
89,,call-function,89,95552,0.0-3.0-50.0,,,,,,,,,,,,,,,,,,,,
90,,html-keyboard-response,90,96056,0.0-3.0-51.0,,<div class = centerbox><div class = fixation>+</div></div>,,test_fixation,500.0,,test,0.0,500.0,,,,,,,,,,,
91,,html-keyboard-response,91,96559,0.0-3.0-52.0,,<div class = centerbox><div class = AX_text>A</div></div>,,test_cue,500.0,,test,0.0,500.0,AX,A,,,,,,,,,
92,,html-keyboard-response,92,99562,0.0-3.0-53.0,,<div class = centerbox><div class = fixation>+</div></div>,,test_inter-stimulus,3000.0,,test,0.0,3000.0,,,,,,,,,,,
93,,html-keyboard-response,93,101069,0.0-3.0-54.0,,<div class = centerbox><div class = AX_text>X</div></div>,,test_trial,1500.0,,test,0.0,1000.0,AX,,"['.', ',']",.,0,X,,,,,
94,,html-keyboard-response,94,101126,0.0-3.0-55.0,,<div class = centerbox><div class = fixation>+</div></div>,,test_ITI,53.48385856294263,,test,0.0,53.48385856294263,,,,,,,"{'min': 0, 'max': 5, 'mean': 0.5}",,,,
95,,call-function,95,101126,0.0-3.0-56.0,,,,,,,,,,,,,,,,,,,,
96,,html-keyboard-response,96,101630,0.0-3.0-57.0,,<div class = centerbox><div class = fixation>+</div></div>,,test_fixation,500.0,,test,0.0,500.0,,,,,,,,,,,
97,,html-keyboard-response,97,102134,0.0-3.0-58.0,,<div class = centerbox><div class = AX_text>A</div></div>,,test_cue,500.0,,test,0.0,500.0,AX,A,,,,,,,,,
98,,html-keyboard-response,98,105141,0.0-3.0-59.0,,<div class = centerbox><div class = fixation>+</div></div>,,test_inter-stimulus,3000.0,,test,0.0,3000.0,,,,,,,,,,,
99,,html-keyboard-response,99,106647,0.0-3.0-60.0,,<div class = centerbox><div class = AX_text>X</div></div>,,test_trial,1500.0,,test,0.0,1000.0,AX,,"['.', ',']",.,0,X,,,,,
100,,html-keyboard-response,100,106944,0.0-3.0-61.0,,<div class = centerbox><div class = fixation>+</div></div>,,test_ITI,290.65144983380355,,test,0.0,290.65144983380355,,,,,,,"{'min': 0, 'max': 5, 'mean': 0.5}",,,,
101,,call-function,101,106944,0.0-3.0-62.0,,,,,,,,,,,,,,,,,,,,
102,,html-keyboard-response,102,107446,0.0-3.0-63.0,,<div class = centerbox><div class = fixation>+</div></div>,,test_fixation,500.0,,test,0.0,500.0,,,,,,,,,,,
103,,html-keyboard-response,103,107951,0.0-3.0-64.0,,<div class = centerbox><div class = AX_text>C</div></div>,,test_cue,500.0,,test,0.0,500.0,BY,C,,,,,,,,,
104,,html-keyboard-response,104,110958,0.0-3.0-65.0,,<div class = centerbox><div class = fixation>+</div></div>,,test_inter-stimulus,3000.0,,test,0.0,3000.0,,,,,,,,,,,
105,,html-keyboard-response,105,112465,0.0-3.0-66.0,,<div class = centerbox><div class = AX_text>Q</div></div>,,test_trial,1500.0,,test,0.0,1000.0,BY,,"['.', ',']",",",0,Q,,,,,
106,,html-keyboard-response,106,112752,0.0-3.0-67.0,,<div class = centerbox><div class = fixation>+</div></div>,,test_ITI,284.4704548572169,,test,0.0,284.4704548572169,,,,,,,"{'min': 0, 'max': 5, 'mean': 0.5}",,,,
107,,call-function,107,112753,0.0-3.0-68.0,,,,,,,,,,,,,,,,,,,,
108,,html-keyboard-response,108,113257,0.0-3.0-69.0,,<div class = centerbox><div class = fixation>+</div></div>,,test_fixation,500.0,,test,0.0,500.0,,,,,,,,,,,
109,,html-keyboard-response,109,113763,0.0-3.0-70.0,,<div class = centerbox><div class = AX_text>N</div></div>,,test_cue,500.0,,test,0.0,500.0,BY,N,,,,,,,,,
110,,html-keyboard-response,110,116770,0.0-3.0-71.0,,<div class = centerbox><div class = fixation>+</div></div>,,test_inter-stimulus,3000.0,,test,0.0,3000.0,,,,,,,,,,,
111,,html-keyboard-response,111,118276,0.0-3.0-72.0,,<div class = centerbox><div class = AX_text>L</div></div>,,test_trial,1500.0,,test,0.0,1000.0,BY,,"['.', ',']",",",0,L,,,,,
112,,html-keyboard-response,112,118409,0.0-3.0-73.0,,<div class = centerbox><div class = fixation>+</div></div>,,test_ITI,128.51546170696545,,test,0.0,128.51546170696545,,,,,,,"{'min': 0, 'max': 5, 'mean': 0.5}",,,,
113,,call-function,113,118410,0.0-3.0-74.0,,,,,,,,,,,,,,,,,,,,
114,,html-keyboard-response,114,118912,0.0-3.0-75.0,,<div class = centerbox><div class = fixation>+</div></div>,,test_fixation,500.0,,test,0.0,500.0,,,,,,,,,,,
115,,html-keyboard-response,115,119415,0.0-3.0-76.0,,<div class = centerbox><div class = AX_text>A</div></div>,,test_cue,500.0,,test,0.0,500.0,AY,A,,,,,,,,,
116,,html-keyboard-response,116,122421,0.0-3.0-77.0,,<div class = centerbox><div class = fixation>+</div></div>,,test_inter-stimulus,3000.0,,test,0.0,3000.0,,,,,,,,,,,
117,,html-keyboard-response,117,123928,0.0-3.0-78.0,,<div class = centerbox><div class = AX_text>T</div></div>,,test_trial,1500.0,,test,0.0,1000.0,AY,,"['.', ',']",",",0,T,,,,,
118,,html-keyboard-response,118,123942,0.0-3.0-79.0,,<div class = centerbox><div class = fixation>+</div></div>,,test_ITI,13.818771674540486,,test,0.0,13.818771674540486,,,,,,,"{'min': 0, 'max': 5, 'mean': 0.5}",,,,
119,,call-function,119,123943,0.0-3.0-80.0,,,,,,,,,,,,,,,,,,,,
120,,html-keyboard-response,120,124445,0.0-3.0-81.0,,<div class = centerbox><div class = fixation>+</div></div>,,test_fixation,500.0,,test,0.0,500.0,,,,,,,,,,,
121,,html-keyboard-response,121,124950,0.0-3.0-82.0,,<div class = centerbox><div class = AX_text>A</div></div>,,test_cue,500.0,,test,0.0,500.0,AX,A,,,,,,,,,
122,,html-keyboard-response,122,127956,0.0-3.0-83.0,,<div class = centerbox><div class = fixation>+</div></div>,,test_inter-stimulus,3000.0,,test,0.0,3000.0,,,,,,,,,,,
123,,html-keyboard-response,123,129458,0.0-3.0-84.0,,<div class = centerbox><div class = AX_text>X</div></div>,,test_trial,1500.0,,test,0.0,1000.0,AX,,"['.', ',']",.,0,X,,,,,
124,,html-keyboard-response,124,130443,0.0-3.0-85.0,,<div class = centerbox><div class = fixation>+</div></div>,,test_ITI,981.4234103521406,,test,0.0,981.4234103521406,,,,,,,"{'min': 0, 'max': 5, 'mean': 0.5}",,,,
125,,call-function,125,130443,0.0-3.0-86.0,,,,,,,,,,,,,,,,,,,,
126,,html-keyboard-response,126,130948,0.0-3.0-87.0,,<div class = centerbox><div class = fixation>+</div></div>,,test_fixation,500.0,,test,0.0,500.0,,,,,,,,,,,
127,,html-keyboard-response,127,131453,0.0-3.0-88.0,,<div class = centerbox><div class = AX_text>A</div></div>,,test_cue,500.0,,test,0.0,500.0,AX,A,,,,,,,,,
128,,html-keyboard-response,128,134460,0.0-3.0-89.0,,<div class = centerbox><div class = fixation>+</div></div>,,test_inter-stimulus,3000.0,,test,0.0,3000.0,,,,,,,,,,,
129,,html-keyboard-response,129,135967,0.0-3.0-90.0,,<div class = centerbox><div class = AX_text>X</div></div>,,test_trial,1500.0,,test,0.0,1000.0,AX,,"['.', ',']",.,0,X,,,,,
130,,html-keyboard-response,130,136014,0.0-3.0-91.0,,<div class = centerbox><div class = fixation>+</div></div>,,test_ITI,41.485998662896456,,test,0.0,41.485998662896456,,,,,,,"{'min': 0, 'max': 5, 'mean': 0.5}",,,,
131,,call-function,131,136014,0.0-3.0-92.0,,,,,,,,,,,,,,,,,,,,
132,,html-keyboard-response,132,136517,0.0-3.0-93.0,,<div class = centerbox><div class = fixation>+</div></div>,,test_fixation,500.0,,test,0.0,500.0,,,,,,,,,,,
133,,html-keyboard-response,133,137023,0.0-3.0-94.0,,<div class = centerbox><div class = AX_text>A</div></div>,,test_cue,500.0,,test,0.0,500.0,AY,A,,,,,,,,,
134,,html-keyboard-response,134,140029,0.0-3.0-95.0,,<div class = centerbox><div class = fixation>+</div></div>,,test_inter-stimulus,3000.0,,test,0.0,3000.0,,,,,,,,,,,
135,,html-keyboard-response,135,141536,0.0-3.0-96.0,,<div class = centerbox><div class = AX_text>P</div></div>,,test_trial,1500.0,,test,0.0,1000.0,AY,,"['.', ',']",",",0,P,,,,,
136,,html-keyboard-response,136,141593,0.0-3.0-97.0,,<div class = centerbox><div class = fixation>+</div></div>,,test_ITI,52.64585534003908,,test,0.0,52.64585534003908,,,,,,,"{'min': 0, 'max': 5, 'mean': 0.5}",,,,
137,,call-function,137,141594,0.0-3.0-98.0,,,,,,,,,,,,,,,,,,,,
138,,html-keyboard-response,138,142095,0.0-3.0-99.0,,<div class = centerbox><div class = fixation>+</div></div>,,test_fixation,500.0,,test,0.0,500.0,,,,,,,,,,,
139,,html-keyboard-response,139,142600,0.0-3.0-100.0,,<div class = centerbox><div class = AX_text>A</div></div>,,test_cue,500.0,,test,0.0,500.0,AY,A,,,,,,,,,
140,,html-keyboard-response,140,145607,0.0-3.0-101.0,,<div class = centerbox><div class = fixation>+</div></div>,,test_inter-stimulus,3000.0,,test,0.0,3000.0,,,,,,,,,,,
141,,html-keyboard-response,141,147113,0.0-3.0-102.0,,<div class = centerbox><div class = AX_text>V</div></div>,,test_trial,1500.0,,test,0.0,1000.0,AY,,"['.', ',']",",",0,V,,,,,
142,,html-keyboard-response,142,147568,0.0-3.0-103.0,,<div class = centerbox><div class = fixation>+</div></div>,,test_ITI,452.1650525554023,,test,0.0,452.1650525554023,,,,,,,"{'min': 0, 'max': 5, 'mean': 0.5}",,,,
143,,call-function,143,147569,0.0-3.0-104.0,,,,,,,,,,,,,,,,,,,,
144,,html-keyboard-response,144,148073,0.0-3.0-105.0,,<div class = centerbox><div class = fixation>+</div></div>,,test_fixation,500.0,,test,0.0,500.0,,,,,,,,,,,
145,,html-keyboard-response,145,148575,0.0-3.0-106.0,,<div class = centerbox><div class = AX_text>S</div></div>,,test_cue,500.0,,test,0.0,500.0,BX,S,,,,,,,,,
146,,html-keyboard-response,146,151581,0.0-3.0-107.0,,<div class = centerbox><div class = fixation>+</div></div>,,test_inter-stimulus,3000.0,,test,0.0,3000.0,,,,,,,,,,,
147,,html-keyboard-response,147,153087,0.0-3.0-108.0,,<div class = centerbox><div class = AX_text>X</div></div>,,test_trial,1500.0,,test,0.0,1000.0,BX,,"['.', ',']",",",0,X,,,,,
148,,html-keyboard-response,148,153681,0.0-3.0-109.0,,<div class = centerbox><div class = fixation>+</div></div>,,test_ITI,588.3680902599133,,test,0.0,588.3680902599133,,,,,,,"{'min': 0, 'max': 5, 'mean': 0.5}",,,,
149,,call-function,149,153682,0.0-3.0-110.0,,,,,,,,,,,,,,,,,,,,
150,,html-keyboard-response,150,154185,0.0-3.0-111.0,,<div class = centerbox><div class = fixation>+</div></div>,,test_fixation,500.0,,test,0.0,500.0,,,,,,,,,,,
151,,html-keyboard-response,151,154687,0.0-3.0-112.0,,<div class = centerbox><div class = AX_text>A</div></div>,,test_cue,500.0,,test,0.0,500.0,AY,A,,,,,,,,,
152,,html-keyboard-response,152,157693,0.0-3.0-113.0,,<div class = centerbox><div class = fixation>+</div></div>,,test_inter-stimulus,3000.0,,test,0.0,3000.0,,,,,,,,,,,
153,,html-keyboard-response,153,159198,0.0-3.0-114.0,,<div class = centerbox><div class = AX_text>M</div></div>,,test_trial,1500.0,,test,0.0,1000.0,AY,,"['.', ',']",",",0,M,,,,,
154,,html-keyboard-response,154,160820,0.0-3.0-115.0,,<div class = centerbox><div class = fixation>+</div></div>,,test_ITI,1616.2191415580853,,test,0.0,1616.2191415580853,,,,,,,"{'min': 0, 'max': 5, 'mean': 0.5}",,,,
155,,call-function,155,160821,0.0-3.0-116.0,,,,,,,,,,,,,,,,,,,,
156,,html-keyboard-response,156,161323,0.0-3.0-117.0,,<div class = centerbox><div class = fixation>+</div></div>,,test_fixation,500.0,,test,0.0,500.0,,,,,,,,,,,
157,,html-keyboard-response,157,161828,0.0-3.0-118.0,,<div class = centerbox><div class = AX_text>H</div></div>,,test_cue,500.0,,test,0.0,500.0,BX,H,,,,,,,,,
158,,html-keyboard-response,158,164835,0.0-3.0-119.0,,<div class = centerbox><div class = fixation>+</div></div>,,test_inter-stimulus,3000.0,,test,0.0,3000.0,,,,,,,,,,,
159,,html-keyboard-response,159,166341,0.0-3.0-120.0,,<div class = centerbox><div class = AX_text>X</div></div>,,test_trial,1500.0,,test,0.0,1000.0,BX,,"['.', ',']",",",0,X,,,,,
160,,html-keyboard-response,160,166707,0.0-3.0-121.0,,<div class = centerbox><div class = fixation>+</div></div>,,test_ITI,361.2339789031814,,test,0.0,361.2339789031814,,,,,,,"{'min': 0, 'max': 5, 'mean': 0.5}",,,,
161,,call-function,161,166708,0.0-3.0-122.0,,,,,,,,,,,,,,,,,,,,
162,,html-keyboard-response,162,167214,0.0-3.0-123.0,,<div class = centerbox><div class = fixation>+</div></div>,,test_fixation,500.0,,test,0.0,500.0,,,,,,,,,,,
163,,html-keyboard-response,163,167717,0.0-3.0-124.0,,<div class = centerbox><div class = AX_text>A</div></div>,,test_cue,500.0,,test,0.0,500.0,AX,A,,,,,,,,,
164,,html-keyboard-response,164,170724,0.0-3.0-125.0,,<div class = centerbox><div class = fixation>+</div></div>,,test_inter-stimulus,3000.0,,test,0.0,3000.0,,,,,,,,,,,
165,,html-keyboard-response,165,172230,0.0-3.0-126.0,,<div class = centerbox><div class = AX_text>X</div></div>,,test_trial,1500.0,,test,0.0,1000.0,AX,,"['.', ',']",.,0,X,,,,,
166,,html-keyboard-response,166,173448,0.0-3.0-127.0,,<div class = centerbox><div class = fixation>+</div></div>,,test_ITI,1215.740758403563,,test,0.0,1215.740758403563,,,,,,,"{'min': 0, 'max': 5, 'mean': 0.5}",,,,
167,,call-function,167,173449,0.0-3.0-128.0,,,,,,,,,,,,,,,,,,,,
168,,html-keyboard-response,168,173952,0.0-3.0-129.0,,<div class = centerbox><div class = fixation>+</div></div>,,test_fixation,500.0,,test,0.0,500.0,,,,,,,,,,,
169,,html-keyboard-response,169,174457,0.0-3.0-130.0,,<div class = centerbox><div class = AX_text>Z</div></div>,,test_cue,500.0,,test,0.0,500.0,BY,Z,,,,,,,,,
170,,html-keyboard-response,170,177464,0.0-3.0-131.0,,<div class = centerbox><div class = fixation>+</div></div>,,test_inter-stimulus,3000.0,,test,0.0,3000.0,,,,,,,,,,,
171,,html-keyboard-response,171,178968,0.0-3.0-132.0,,<div class = centerbox><div class = AX_text>R</div></div>,,test_trial,1500.0,,test,0.0,1000.0,BY,,"['.', ',']",",",0,R,,,,,
172,,html-keyboard-response,172,179135,0.0-3.0-133.0,,<div class = centerbox><div class = fixation>+</div></div>,,test_ITI,163.92727484714868,,test,0.0,163.92727484714868,,,,,,,"{'min': 0, 'max': 5, 'mean': 0.5}",,,,
173,,call-function,173,179135,0.0-3.0-134.0,,,,,,,,,,,,,,,,,,,,
174,,html-keyboard-response,174,179639,0.0-3.0-135.0,,<div class = centerbox><div class = fixation>+</div></div>,,test_fixation,500.0,,test,0.0,500.0,,,,,,,,,,,
175,,html-keyboard-response,175,180142,0.0-3.0-136.0,,<div class = centerbox><div class = AX_text>I</div></div>,,test_cue,500.0,,test,0.0,500.0,BY,I,,,,,,,,,
176,,html-keyboard-response,176,183153,0.0-3.0-137.0,,<div class = centerbox><div class = fixation>+</div></div>,,test_inter-stimulus,3000.0,,test,0.0,3000.0,,,,,,,,,,,
177,,html-keyboard-response,177,184654,0.0-3.0-138.0,,<div class = centerbox><div class = AX_text>U</div></div>,,test_trial,1500.0,,test,0.0,1000.0,BY,,"['.', ',']",",",0,U,,,,,
178,,html-keyboard-response,178,185536,0.0-3.0-139.0,,<div class = centerbox><div class = fixation>+</div></div>,,test_ITI,875.6472681251149,,test,0.0,875.6472681251149,,,,,,,"{'min': 0, 'max': 5, 'mean': 0.5}",,,,
179,,call-function,179,185536,0.0-3.0-140.0,,,,,,,,,,,,,,,,,,,,
180,,html-keyboard-response,180,186041,0.0-3.0-141.0,,<div class = centerbox><div class = fixation>+</div></div>,,test_fixation,500.0,,test,0.0,500.0,,,,,,,,,,,
181,,html-keyboard-response,181,186548,0.0-3.0-142.0,,<div class = centerbox><div class = AX_text>L</div></div>,,test_cue,500.0,,test,0.0,500.0,BY,L,,,,,,,,,
182,,html-keyboard-response,182,197403,0.0-3.0-143.0,,<div class = centerbox><div class = fixation>+</div></div>,,test_inter-stimulus,3000.0,,test,0.0,3000.0,,,,,,,,,,,
183,,html-keyboard-response,183,199311,0.0-3.0-144.0,,<div class = centerbox><div class = AX_text>O</div></div>,,test_trial,1500.0,,test,0.0,1000.0,BY,,"['.', ',']",",",0,O,,,,,
184,,html-keyboard-response,184,199502,0.0-3.0-145.0,,<div class = centerbox><div class = fixation>+</div></div>,,test_ITI,188.36678305521164,,test,0.0,188.36678305521164,,,,,,,"{'min': 0, 'max': 5, 'mean': 0.5}",,,,
185,,call-function,185,199503,0.0-3.0-146.0,,,,,,,,,,,,,,,,,,,,
186,,html-keyboard-response,186,200008,0.0-3.0-147.0,,<div class = centerbox><div class = fixation>+</div></div>,,test_fixation,500.0,,test,0.0,500.0,,,,,,,,,,,
187,,html-keyboard-response,187,200513,0.0-3.0-148.0,,<div class = centerbox><div class = AX_text>A</div></div>,,test_cue,500.0,,test,0.0,500.0,AX,A,,,,,,,,,
188,,html-keyboard-response,188,203516,0.0-3.0-149.0,,<div class = centerbox><div class = fixation>+</div></div>,,test_inter-stimulus,3000.0,,test,0.0,3000.0,,,,,,,,,,,
189,,html-keyboard-response,189,205022,0.0-3.0-150.0,,<div class = centerbox><div class = AX_text>X</div></div>,,test_trial,1500.0,,test,0.0,1000.0,AX,,"['.', ',']",.,0,X,,,,,
190,,html-keyboard-response,190,205352,0.0-3.0-151.0,,<div class = centerbox><div class = fixation>+</div></div>,,test_ITI,324.81531110454,,test,0.0,324.81531110454,,,,,,,"{'min': 0, 'max': 5, 'mean': 0.5}",,,,
191,,call-function,191,205352,0.0-3.0-152.0,,,,,,,,,,,,,,,,,,,,
192,,html-keyboard-response,192,205855,0.0-3.0-153.0,,<div class = centerbox><div class = fixation>+</div></div>,,test_fixation,500.0,,test,0.0,500.0,,,,,,,,,,,
193,,html-keyboard-response,193,206361,0.0-3.0-154.0,,<div class = centerbox><div class = AX_text>A</div></div>,,test_cue,500.0,,test,0.0,500.0,AX,A,,,,,,,,,
194,,html-keyboard-response,194,209367,0.0-3.0-155.0,,<div class = centerbox><div class = fixation>+</div></div>,,test_inter-stimulus,3000.0,,test,0.0,3000.0,,,,,,,,,,,
195,,html-keyboard-response,195,210871,0.0-3.0-156.0,,<div class = centerbox><div class = AX_text>X</div></div>,,test_trial,1500.0,,test,0.0,1000.0,AX,,"['.', ',']",.,0,X,,,,,
196,,html-keyboard-response,196,211669,0.0-3.0-157.0,,<div class = centerbox><div class = fixation>+</div></div>,,test_ITI,792.5177361849043,,test,0.0,792.5177361849043,,,,,,,"{'min': 0, 'max': 5, 'mean': 0.5}",,,,
197,,call-function,197,211669,0.0-3.0-158.0,,,,,,,,,,,,,,,,,,,,
198,,html-keyboard-response,198,212176,0.0-3.0-159.0,,<div class = centerbox><div class = fixation>+</div></div>,,test_fixation,500.0,,test,0.0,500.0,,,,,,,,,,,
199,,html-keyboard-response,199,212680,0.0-3.0-160.0,,<div class = centerbox><div class = AX_text>A</div></div>,,test_cue,500.0,,test,0.0,500.0,AX,A,,,,,,,,,
200,,html-keyboard-response,200,215684,0.0-3.0-161.0,,<div class = centerbox><div class = fixation>+</div></div>,,test_inter-stimulus,3000.0,,test,0.0,3000.0,,,,,,,,,,,
201,,html-keyboard-response,201,217188,0.0-3.0-162.0,,<div class = centerbox><div class = AX_text>X</div></div>,,test_trial,1500.0,,test,0.0,1000.0,AX,,"['.', ',']",.,0,X,,,,,
202,,html-keyboard-response,202,217605,0.0-3.0-163.0,,<div class = centerbox><div class = fixation>+</div></div>,,test_ITI,414.0080442968231,,test,0.0,414.0080442968231,,,,,,,"{'min': 0, 'max': 5, 'mean': 0.5}",,,,
203,,call-function,203,217605,0.0-3.0-164.0,,,,,,,,,,,,,,,,,,,,
204,,html-keyboard-response,204,218108,0.0-3.0-165.0,,<div class = centerbox><div class = fixation>+</div></div>,,test_fixation,500.0,,test,0.0,500.0,,,,,,,,,,,
205,,html-keyboard-response,205,218614,0.0-3.0-166.0,,<div class = centerbox><div class = AX_text>A</div></div>,,test_cue,500.0,,test,0.0,500.0,AY,A,,,,,,,,,
206,,html-keyboard-response,206,221621,0.0-3.0-167.0,,<div class = centerbox><div class = fixation>+</div></div>,,test_inter-stimulus,3000.0,,test,0.0,3000.0,,,,,,,,,,,
207,,html-keyboard-response,207,223127,0.0-3.0-168.0,,<div class = centerbox><div class = AX_text>J</div></div>,,test_trial,1500.0,,test,0.0,1000.0,AY,,"['.', ',']",",",0,J,,,,,
208,,html-keyboard-response,208,223460,0.0-3.0-169.0,,<div class = centerbox><div class = fixation>+</div></div>,,test_ITI,330.1023821978466,,test,0.0,330.1023821978466,,,,,,,"{'min': 0, 'max': 5, 'mean': 0.5}",,,,
209,,call-function,209,223460,0.0-3.0-170.0,,,,,,,,,,,,,,,,,,,,
210,,html-keyboard-response,210,223965,0.0-3.0-171.0,,<div class = centerbox><div class = fixation>+</div></div>,,test_fixation,500.0,,test,0.0,500.0,,,,,,,,,,,
211,,html-keyboard-response,211,224469,0.0-3.0-172.0,,<div class = centerbox><div class = AX_text>A</div></div>,,test_cue,500.0,,test,0.0,500.0,AY,A,,,,,,,,,
212,,html-keyboard-response,212,227476,0.0-3.0-173.0,,<div class = centerbox><div class = fixation>+</div></div>,,test_inter-stimulus,3000.0,,test,0.0,3000.0,,,,,,,,,,,
213,,html-keyboard-response,213,228983,0.0-3.0-174.0,,<div class = centerbox><div class = AX_text>V</div></div>,,test_trial,1500.0,,test,0.0,1000.0,AY,,"['.', ',']",",",0,V,,,,,
214,,html-keyboard-response,214,228989,0.0-3.0-175.0,,<div class = centerbox><div class = fixation>+</div></div>,,test_ITI,5.750177444888589,,test,0.0,5.750177444888589,,,,,,,"{'min': 0, 'max': 5, 'mean': 0.5}",,,,
215,,call-function,215,228990,0.0-3.0-176.0,,,,,,,,,,,,,,,,,,,,
216,,html-keyboard-response,216,229492,0.0-3.0-177.0,,<div class = centerbox><div class = fixation>+</div></div>,,test_fixation,500.0,,test,0.0,500.0,,,,,,,,,,,
217,,html-keyboard-response,217,229997,0.0-3.0-178.0,,<div class = centerbox><div class = AX_text>A</div></div>,,test_cue,500.0,,test,0.0,500.0,AX,A,,,,,,,,,
218,,html-keyboard-response,218,233001,0.0-3.0-179.0,,<div class = centerbox><div class = fixation>+</div></div>,,test_inter-stimulus,3000.0,,test,0.0,3000.0,,,,,,,,,,,
219,,html-keyboard-response,219,234506,0.0-3.0-180.0,,<div class = centerbox><div class = AX_text>X</div></div>,,test_trial,1500.0,,test,0.0,1000.0,AX,,"['.', ',']",.,0,X,,,,,
220,,html-keyboard-response,220,235484,0.0-3.0-181.0,,<div class = centerbox><div class = fixation>+</div></div>,,test_ITI,974.4420284968459,,test,0.0,974.4420284968459,,,,,,,"{'min': 0, 'max': 5, 'mean': 0.5}",,,,
221,,call-function,221,235485,0.0-3.0-182.0,,,,,,,,,,,,,,,,,,,,
222,,html-keyboard-response,222,235990,0.0-3.0-183.0,,<div class = centerbox><div class = fixation>+</div></div>,,test_fixation,500.0,,test,0.0,500.0,,,,,,,,,,,
223,,html-keyboard-response,223,236493,0.0-3.0-184.0,,<div class = centerbox><div class = AX_text>O</div></div>,,test_cue,500.0,,test,0.0,500.0,BY,O,,,,,,,,,
224,,html-keyboard-response,224,239500,0.0-3.0-185.0,,<div class = centerbox><div class = fixation>+</div></div>,,test_inter-stimulus,3000.0,,test,0.0,3000.0,,,,,,,,,,,
225,,html-keyboard-response,225,241005,0.0-3.0-186.0,,<div class = centerbox><div class = AX_text>J</div></div>,,test_trial,1500.0,,test,0.0,1000.0,BY,,"['.', ',']",",",0,J,,,,,
226,,html-keyboard-response,226,241033,0.0-3.0-187.0,,<div class = centerbox><div class = fixation>+</div></div>,,test_ITI,23.728637556866868,,test,0.0,23.728637556866868,,,,,,,"{'min': 0, 'max': 5, 'mean': 0.5}",,,,
227,,call-function,227,241034,0.0-3.0-188.0,,,,,,,,,,,,,,,,,,,,
228,,html-keyboard-response,228,241540,0.0-3.0-189.0,,<div class = centerbox><div class = fixation>+</div></div>,,test_fixation,500.0,,test,0.0,500.0,,,,,,,,,,,
229,,html-keyboard-response,229,242043,0.0-3.0-190.0,,<div class = centerbox><div class = AX_text>I</div></div>,,test_cue,500.0,,test,0.0,500.0,BX,I,,,,,,,,,
230,,html-keyboard-response,230,245050,0.0-3.0-191.0,,<div class = centerbox><div class = fixation>+</div></div>,,test_inter-stimulus,3000.0,,test,0.0,3000.0,,,,,,,,,,,
231,,html-keyboard-response,231,246554,0.0-3.0-192.0,,<div class = centerbox><div class = AX_text>X</div></div>,,test_trial,1500.0,,test,0.0,1000.0,BX,,"['.', ',']",",",0,X,,,,,
232,,html-keyboard-response,232,246921,0.0-3.0-193.0,,<div class = centerbox><div class = fixation>+</div></div>,,test_ITI,360.7868961414227,,test,0.0,360.7868961414227,,,,,,,"{'min': 0, 'max': 5, 'mean': 0.5}",,,,
233,,call-function,233,246921,0.0-3.0-194.0,,,,,,,,,,,,,,,,,,,,
234,,html-keyboard-response,234,247424,0.0-3.0-195.0,,<div class = centerbox><div class = fixation>+</div></div>,,test_fixation,500.0,,test,0.0,500.0,,,,,,,,,,,
235,,html-keyboard-response,235,247928,0.0-3.0-196.0,,<div class = centerbox><div class = AX_text>A</div></div>,,test_cue,500.0,,test,0.0,500.0,AX,A,,,,,,,,,
236,,html-keyboard-response,236,250935,0.0-3.0-197.0,,<div class = centerbox><div class = fixation>+</div></div>,,test_inter-stimulus,3000.0,,test,0.0,3000.0,,,,,,,,,,,
237,,html-keyboard-response,237,252442,0.0-3.0-198.0,,<div class = centerbox><div class = AX_text>X</div></div>,,test_trial,1500.0,,test,0.0,1000.0,AX,,"['.', ',']",.,0,X,,,,,
238,,html-keyboard-response,238,252957,0.0-3.0-199.0,,<div class = centerbox><div class = fixation>+</div></div>,,test_ITI,513.983931714698,,test,0.0,513.983931714698,,,,,,,"{'min': 0, 'max': 5, 'mean': 0.5}",,,,
239,,call-function,239,252957,0.0-3.0-200.0,,,,,,,,,,,,,,,,,,,,
240,,html-keyboard-response,240,253461,0.0-3.0-201.0,,<div class = centerbox><div class = fixation>+</div></div>,,test_fixation,500.0,,test,0.0,500.0,,,,,,,,,,,
241,,html-keyboard-response,241,253966,0.0-3.0-202.0,,<div class = centerbox><div class = AX_text>Q</div></div>,,test_cue,500.0,,test,0.0,500.0,BX,Q,,,,,,,,,
242,,html-keyboard-response,242,256969,0.0-3.0-203.0,,<div class = centerbox><div class = fixation>+</div></div>,,test_inter-stimulus,3000.0,,test,0.0,3000.0,,,,,,,,,,,
243,,html-keyboard-response,243,258472,0.0-3.0-204.0,,<div class = centerbox><div class = AX_text>X</div></div>,,test_trial,1500.0,,test,0.0,1000.0,BX,,"['.', ',']",",",0,X,,,,,
244,,html-keyboard-response,244,260224,0.0-3.0-205.0,,<div class = centerbox><div class = fixation>+</div></div>,,test_ITI,1749.9112490119774,,test,0.0,1749.9112490119774,,,,,,,"{'min': 0, 'max': 5, 'mean': 0.5}",,,,
245,,call-function,245,260225,0.0-3.0-206.0,,,,,,,,,,,,,,,,,,,,
246,,html-keyboard-response,246,260730,0.0-3.0-207.0,,<div class = centerbox><div class = fixation>+</div></div>,,test_fixation,500.0,,test,0.0,500.0,,,,,,,,,,,
247,,html-keyboard-response,247,261231,0.0-3.0-208.0,,<div class = centerbox><div class = AX_text>U</div></div>,,test_cue,500.0,,test,0.0,500.0,BX,U,,,,,,,,,
248,,html-keyboard-response,248,264237,0.0-3.0-209.0,,<div class = centerbox><div class = fixation>+</div></div>,,test_inter-stimulus,3000.0,,test,0.0,3000.0,,,,,,,,,,,
249,,html-keyboard-response,249,265743,0.0-3.0-210.0,,<div class = centerbox><div class = AX_text>X</div></div>,,test_trial,1500.0,,test,0.0,1000.0,BX,,"['.', ',']",",",0,X,,,,,
250,,html-keyboard-response,250,267040,0.0-3.0-211.0,,<div class = centerbox><div class = fixation>+</div></div>,,test_ITI,1291.2685326816375,,test,0.0,1291.2685326816375,,,,,,,"{'min': 0, 'max': 5, 'mean': 0.5}",,,,
251,,call-function,251,267040,0.0-3.0-212.0,,,,,,,,,,,,,,,,,,,,
252,,html-keyboard-response,252,267545,0.0-3.0-213.0,,<div class = centerbox><div class = fixation>+</div></div>,,test_fixation,500.0,,test,0.0,500.0,,,,,,,,,,,
253,,html-keyboard-response,253,268047,0.0-3.0-214.0,,<div class = centerbox><div class = AX_text>P</div></div>,,test_cue,500.0,,test,0.0,500.0,BY,P,,,,,,,,,
254,,html-keyboard-response,254,271053,0.0-3.0-215.0,,<div class = centerbox><div class = fixation>+</div></div>,,test_inter-stimulus,3000.0,,test,0.0,3000.0,,,,,,,,,,,
255,,html-keyboard-response,255,272560,0.0-3.0-216.0,,<div class = centerbox><div class = AX_text>V</div></div>,,test_trial,1500.0,,test,0.0,1000.0,BY,,"['.', ',']",",",0,V,,,,,
256,,html-keyboard-response,256,272767,0.0-3.0-217.0,,<div class = centerbox><div class = fixation>+</div></div>,,test_ITI,206.58943384727897,,test,0.0,206.58943384727897,,,,,,,"{'min': 0, 'max': 5, 'mean': 0.5}",,,,
257,,call-function,257,272767,0.0-3.0-218.0,,,,,,,,,,,,,,,,,,,,
258,,html-keyboard-response,258,273270,0.0-3.0-219.0,,<div class = centerbox><div class = fixation>+</div></div>,,test_fixation,500.0,,test,0.0,500.0,,,,,,,,,,,
259,,html-keyboard-response,259,273774,0.0-3.0-220.0,,<div class = centerbox><div class = AX_text>A</div></div>,,test_cue,500.0,,test,0.0,500.0,AX,A,,,,,,,,,
260,,html-keyboard-response,260,276781,0.0-3.0-221.0,,<div class = centerbox><div class = fixation>+</div></div>,,test_inter-stimulus,3000.0,,test,0.0,3000.0,,,,,,,,,,,
261,,html-keyboard-response,261,278288,0.0-3.0-222.0,,<div class = centerbox><div class = AX_text>X</div></div>,,test_trial,1500.0,,test,0.0,1000.0,AX,,"['.', ',']",.,0,X,,,,,
262,,html-keyboard-response,262,279672,0.0-3.0-223.0,,<div class = centerbox><div class = fixation>+</div></div>,,test_ITI,1378.117891227843,,test,0.0,1378.117891227843,,,,,,,"{'min': 0, 'max': 5, 'mean': 0.5}",,,,
263,,call-function,263,279673,0.0-3.0-224.0,,,,,,,,,,,,,,,,,,,,
264,,html-keyboard-response,264,280176,0.0-3.0-225.0,,<div class = centerbox><div class = fixation>+</div></div>,,test_fixation,500.0,,test,0.0,500.0,,,,,,,,,,,
265,,html-keyboard-response,265,280678,0.0-3.0-226.0,,<div class = centerbox><div class = AX_text>A</div></div>,,test_cue,500.0,,test,0.0,500.0,AY,A,,,,,,,,,
266,,html-keyboard-response,266,283681,0.0-3.0-227.0,,<div class = centerbox><div class = fixation>+</div></div>,,test_inter-stimulus,3000.0,,test,0.0,3000.0,,,,,,,,,,,
267,,html-keyboard-response,267,285187,0.0-3.0-228.0,,<div class = centerbox><div class = AX_text>U</div></div>,,test_trial,1500.0,,test,0.0,1000.0,AY,,"['.', ',']",",",0,U,,,,,
268,,html-keyboard-response,268,285215,0.0-3.0-229.0,,<div class = centerbox><div class = fixation>+</div></div>,,test_ITI,23.14889837581909,,test,0.0,23.14889837581909,,,,,,,"{'min': 0, 'max': 5, 'mean': 0.5}",,,,
269,,call-function,269,285215,0.0-3.0-230.0,,,,,,,,,,,,,,,,,,,,
270,,html-keyboard-response,270,285717,0.0-3.0-231.0,,<div class = centerbox><div class = fixation>+</div></div>,,test_fixation,500.0,,test,0.0,500.0,,,,,,,,,,,
271,,html-keyboard-response,271,286221,0.0-3.0-232.0,,<div class = centerbox><div class = AX_text>A</div></div>,,test_cue,500.0,,test,0.0,500.0,AY,A,,,,,,,,,
272,,html-keyboard-response,272,289223,0.0-3.0-233.0,,<div class = centerbox><div class = fixation>+</div></div>,,test_inter-stimulus,3000.0,,test,0.0,3000.0,,,,,,,,,,,
273,,html-keyboard-response,273,290730,0.0-3.0-234.0,,<div class = centerbox><div class = AX_text>V</div></div>,,test_trial,1500.0,,test,0.0,1000.0,AY,,"['.', ',']",",",0,V,,,,,
274,,html-keyboard-response,274,290882,0.0-3.0-235.0,,<div class = centerbox><div class = fixation>+</div></div>,,test_ITI,146.22944061811123,,test,0.0,146.22944061811123,,,,,,,"{'min': 0, 'max': 5, 'mean': 0.5}",,,,
275,,call-function,275,290883,0.0-3.0-236.0,,,,,,,,,,,,,,,,,,,,
276,,html-keyboard-response,276,291386,0.0-3.0-237.0,,<div class = centerbox><div class = fixation>+</div></div>,,test_fixation,500.0,,test,0.0,500.0,,,,,,,,,,,
277,,html-keyboard-response,277,291890,0.0-3.0-238.0,,<div class = centerbox><div class = AX_text>E</div></div>,,test_cue,500.0,,test,0.0,500.0,BX,E,,,,,,,,,
278,,html-keyboard-response,278,294896,0.0-3.0-239.0,,<div class = centerbox><div class = fixation>+</div></div>,,test_inter-stimulus,3000.0,,test,0.0,3000.0,,,,,,,,,,,
279,,html-keyboard-response,279,296403,0.0-3.0-240.0,,<div class = centerbox><div class = AX_text>X</div></div>,,test_trial,1500.0,,test,0.0,1000.0,BX,,"['.', ',']",",",0,X,,,,,
280,,html-keyboard-response,280,296791,0.0-3.0-241.0,,<div class = centerbox><div class = fixation>+</div></div>,,test_ITI,385.98541584730816,,test,0.0,385.98541584730816,,,,,,,"{'min': 0, 'max': 5, 'mean': 0.5}",,,,
281,,call-function,281,296792,0.0-3.0-242.0,,,,,,,,,,,,,,,,,,,,
282,,html-keyboard-response,282,297295,0.0-3.0-243.0,,<div class = centerbox><div class = fixation>+</div></div>,,test_fixation,500.0,,test,0.0,500.0,,,,,,,,,,,
283,,html-keyboard-response,283,297802,0.0-3.0-244.0,,<div class = centerbox><div class = AX_text>W</div></div>,,test_cue,500.0,,test,0.0,500.0,BY,W,,,,,,,,,
284,,html-keyboard-response,284,300808,0.0-3.0-245.0,,<div class = centerbox><div class = fixation>+</div></div>,,test_inter-stimulus,3000.0,,test,0.0,3000.0,,,,,,,,,,,
285,,html-keyboard-response,285,302315,0.0-3.0-246.0,,<div class = centerbox><div class = AX_text>W</div></div>,,test_trial,1500.0,,test,0.0,1000.0,BY,,"['.', ',']",",",0,W,,,,,
286,,html-keyboard-response,286,303571,0.0-3.0-247.0,,<div class = centerbox><div class = fixation>+</div></div>,,test_ITI,1250.7476173535647,,test,0.0,1250.7476173535647,,,,,,,"{'min': 0, 'max': 5, 'mean': 0.5}",,,,
287,,call-function,287,303572,0.0-3.0-248.0,,,,,,,,,,,,,,,,,,,,
288,,html-keyboard-response,288,304076,0.0-3.0-249.0,,<div class = centerbox><div class = fixation>+</div></div>,,test_fixation,500.0,,test,0.0,500.0,,,,,,,,,,,
289,,html-keyboard-response,289,304578,0.0-3.0-250.0,,<div class = centerbox><div class = AX_text>A</div></div>,,test_cue,500.0,,test,0.0,500.0,AX,A,,,,,,,,,
290,,html-keyboard-response,290,307585,0.0-3.0-251.0,,<div class = centerbox><div class = fixation>+</div></div>,,test_inter-stimulus,3000.0,,test,0.0,3000.0,,,,,,,,,,,
291,,html-keyboard-response,291,309090,0.0-3.0-252.0,,<div class = centerbox><div class = AX_text>X</div></div>,,test_trial,1500.0,,test,0.0,1000.0,AX,,"['.', ',']",.,0,X,,,,,
292,,html-keyboard-response,292,310061,0.0-3.0-253.0,,<div class = centerbox><div class = fixation>+</div></div>,,test_ITI,964.3255488429123,,test,0.0,964.3255488429123,,,,,,,"{'min': 0, 'max': 5, 'mean': 0.5}",,,,
293,,call-function,293,310061,0.0-3.0-254.0,,,,,,,,,,,,,,,,,,,,
294,,html-keyboard-response,294,310564,0.0-3.0-255.0,,<div class = centerbox><div class = fixation>+</div></div>,,test_fixation,500.0,,test,0.0,500.0,,,,,,,,,,,
295,,html-keyboard-response,295,311069,0.0-3.0-256.0,,<div class = centerbox><div class = AX_text>D</div></div>,,test_cue,500.0,,test,0.0,500.0,BX,D,,,,,,,,,
296,,html-keyboard-response,296,314075,0.0-3.0-257.0,,<div class = centerbox><div class = fixation>+</div></div>,,test_inter-stimulus,3000.0,,test,0.0,3000.0,,,,,,,,,,,
297,,html-keyboard-response,297,315581,0.0-3.0-258.0,,<div class = centerbox><div class = AX_text>X</div></div>,,test_trial,1500.0,,test,0.0,1000.0,BX,,"['.', ',']",",",0,X,,,,,
298,,html-keyboard-response,298,316045,0.0-3.0-259.0,,<div class = centerbox><div class = fixation>+</div></div>,,test_ITI,460.06411647498373,,test,0.0,460.06411647498373,,,,,,,"{'min': 0, 'max': 5, 'mean': 0.5}",,,,
299,,call-function,299,316045,0.0-3.0-260.0,,,,,,,,,,,,,,,,,,,,
300,,html-keyboard-response,300,316549,0.0-3.0-261.0,,<div class = centerbox><div class = fixation>+</div></div>,,test_fixation,500.0,,test,0.0,500.0,,,,,,,,,,,
301,,html-keyboard-response,301,317052,0.0-3.0-262.0,,<div class = centerbox><div class = AX_text>A</div></div>,,test_cue,500.0,,test,0.0,500.0,AX,A,,,,,,,,,
302,,html-keyboard-response,302,320059,0.0-3.0-263.0,,<div class = centerbox><div class = fixation>+</div></div>,,test_inter-stimulus,3000.0,,test,0.0,3000.0,,,,,,,,,,,
303,,html-keyboard-response,303,321564,0.0-3.0-264.0,,<div class = centerbox><div class = AX_text>X</div></div>,,test_trial,1500.0,,test,0.0,1000.0,AX,,"['.', ',']",.,0,X,,,,,
304,,html-keyboard-response,304,323258,0.0-3.0-265.0,,<div class = centerbox><div class = fixation>+</div></div>,,test_ITI,1687.4946331186088,,test,0.0,1687.4946331186088,,,,,,,"{'min': 0, 'max': 5, 'mean': 0.5}",,,,
305,,call-function,305,323258,0.0-3.0-266.0,,,,,,,,,,,,,,,,,,,,
306,,html-keyboard-response,306,323762,0.0-3.0-267.0,,<div class = centerbox><div class = fixation>+</div></div>,,test_fixation,500.0,,test,0.0,500.0,,,,,,,,,,,
307,,html-keyboard-response,307,324265,0.0-3.0-268.0,,<div class = centerbox><div class = AX_text>G</div></div>,,test_cue,500.0,,test,0.0,500.0,BX,G,,,,,,,,,
308,,html-keyboard-response,308,327271,0.0-3.0-269.0,,<div class = centerbox><div class = fixation>+</div></div>,,test_inter-stimulus,3000.0,,test,0.0,3000.0,,,,,,,,,,,
309,,html-keyboard-response,309,328777,0.0-3.0-270.0,,<div class = centerbox><div class = AX_text>X</div></div>,,test_trial,1500.0,,test,0.0,1000.0,BX,,"['.', ',']",",",0,X,,,,,
310,,html-keyboard-response,310,329014,0.0-3.0-271.0,,<div class = centerbox><div class = fixation>+</div></div>,,test_ITI,232.47718742488172,,test,0.0,232.47718742488172,,,,,,,"{'min': 0, 'max': 5, 'mean': 0.5}",,,,
311,,call-function,311,329014,0.0-3.0-272.0,,,,,,,,,,,,,,,,,,,,
312,,html-keyboard-response,312,329517,0.0-3.0-273.0,,<div class = centerbox><div class = fixation>+</div></div>,,test_fixation,500.0,,test,0.0,500.0,,,,,,,,,,,
313,,html-keyboard-response,313,330021,0.0-3.0-274.0,,<div class = centerbox><div class = AX_text>A</div></div>,,test_cue,500.0,,test,0.0,500.0,AY,A,,,,,,,,,
314,,html-keyboard-response,314,333027,0.0-3.0-275.0,,<div class = centerbox><div class = fixation>+</div></div>,,test_inter-stimulus,3000.0,,test,0.0,3000.0,,,,,,,,,,,
315,,html-keyboard-response,315,334533,0.0-3.0-276.0,,<div class = centerbox><div class = AX_text>E</div></div>,,test_trial,1500.0,,test,0.0,1000.0,AY,,"['.', ',']",",",0,E,,,,,
316,,html-keyboard-response,316,334858,0.0-3.0-277.0,,<div class = centerbox><div class = fixation>+</div></div>,,test_ITI,319.28095993777737,,test,0.0,319.28095993777737,,,,,,,"{'min': 0, 'max': 5, 'mean': 0.5}",,,,
317,,call-function,317,334858,0.0-3.0-278.0,,,,,,,,,,,,,,,,,,,,
318,,html-keyboard-response,318,335360,0.0-3.0-279.0,,<div class = centerbox><div class = fixation>+</div></div>,,test_fixation,500.0,,test,0.0,500.0,,,,,,,,,,,
319,,html-keyboard-response,319,335863,0.0-3.0-280.0,,<div class = centerbox><div class = AX_text>A</div></div>,,test_cue,500.0,,test,0.0,500.0,AX,A,,,,,,,,,
320,,html-keyboard-response,320,338871,0.0-3.0-281.0,,<div class = centerbox><div class = fixation>+</div></div>,,test_inter-stimulus,3000.0,,test,0.0,3000.0,,,,,,,,,,,
321,,html-keyboard-response,321,340377,0.0-3.0-282.0,,<div class = centerbox><div class = AX_text>X</div></div>,,test_trial,1500.0,,test,0.0,1000.0,AX,,"['.', ',']",.,0,X,,,,,
322,,html-keyboard-response,322,340820,0.0-3.0-283.0,,<div class = centerbox><div class = fixation>+</div></div>,,test_ITI,438.44548770685464,,test,0.0,438.44548770685464,,,,,,,"{'min': 0, 'max': 5, 'mean': 0.5}",,,,
323,,call-function,323,340820,0.0-3.0-284.0,,,,,,,,,,,,,,,,,,,,
324,,html-keyboard-response,324,341324,0.0-3.0-285.0,,<div class = centerbox><div class = fixation>+</div></div>,,test_fixation,500.0,,test,0.0,500.0,,,,,,,,,,,
325,,html-keyboard-response,325,341826,0.0-3.0-286.0,,<div class = centerbox><div class = AX_text>A</div></div>,,test_cue,500.0,,test,0.0,500.0,AX,A,,,,,,,,,
326,,html-keyboard-response,326,344829,0.0-3.0-287.0,,<div class = centerbox><div class = fixation>+</div></div>,,test_inter-stimulus,3000.0,,test,0.0,3000.0,,,,,,,,,,,
327,,html-keyboard-response,327,346336,0.0-3.0-288.0,,<div class = centerbox><div class = AX_text>X</div></div>,,test_trial,1500.0,,test,0.0,1000.0,AX,,"['.', ',']",.,0,X,,,,,
328,,html-keyboard-response,328,346920,0.0-3.0-289.0,,<div class = centerbox><div class = fixation>+</div></div>,,test_ITI,577.581250130235,,test,0.0,577.581250130235,,,,,,,"{'min': 0, 'max': 5, 'mean': 0.5}",,,,
329,,call-function,329,346920,0.0-3.0-290.0,,,,,,,,,,,,,,,,,,,,
330,,html-keyboard-response,330,347423,0.0-3.0-291.0,,<div class = centerbox><div class = fixation>+</div></div>,,test_fixation,500.0,,test,0.0,500.0,,,,,,,,,,,
331,,html-keyboard-response,331,347926,0.0-3.0-292.0,,<div class = centerbox><div class = AX_text>A</div></div>,,test_cue,500.0,,test,0.0,500.0,AX,A,,,,,,,,,
332,,html-keyboard-response,332,350932,0.0-3.0-293.0,,<div class = centerbox><div class = fixation>+</div></div>,,test_inter-stimulus,3000.0,,test,0.0,3000.0,,,,,,,,,,,
333,,html-keyboard-response,333,352439,0.0-3.0-294.0,,<div class = centerbox><div class = AX_text>X</div></div>,,test_trial,1500.0,,test,0.0,1000.0,AX,,"['.', ',']",.,0,X,,,,,
334,,html-keyboard-response,334,352609,0.0-3.0-295.0,,<div class = centerbox><div class = fixation>+</div></div>,,test_ITI,168.73557037250126,,test,0.0,168.73557037250126,,,,,,,"{'min': 0, 'max': 5, 'mean': 0.5}",,,,
335,,call-function,335,352609,0.0-3.0-296.0,,,,,,,,,,,,,,,,,,,,
336,,html-keyboard-response,336,353114,0.0-3.0-297.0,,<div class = centerbox><div class = fixation>+</div></div>,,test_fixation,500.0,,test,0.0,500.0,,,,,,,,,,,
337,,html-keyboard-response,337,353617,0.0-3.0-298.0,,<div class = centerbox><div class = AX_text>J</div></div>,,test_cue,500.0,,test,0.0,500.0,BX,J,,,,,,,,,
338,,html-keyboard-response,338,356622,0.0-3.0-299.0,,<div class = centerbox><div class = fixation>+</div></div>,,test_inter-stimulus,3000.0,,test,0.0,3000.0,,,,,,,,,,,
339,,html-keyboard-response,339,358125,0.0-3.0-300.0,,<div class = centerbox><div class = AX_text>X</div></div>,,test_trial,1500.0,,test,0.0,1000.0,BX,,"['.', ',']",",",0,X,,,,,
340,,html-keyboard-response,340,358373,0.0-3.0-301.0,,<div class = centerbox><div class = fixation>+</div></div>,,test_ITI,241.50600378785865,,test,0.0,241.50600378785865,,,,,,,"{'min': 0, 'max': 5, 'mean': 0.5}",,,,
341,,html-keyboard-response,341,360727,0.0-3.1-0.1,2351.0,"<div class = bigbox><div class = picture_box><p class = block-text>
    <div class = centerbox><p class = block-text>Please take this time to read your feedback! This screen will advance automatically in 1 minute.</p><p class=block-text>You have completed 1 out of 3 blocks of trials.</p>
        <p class = block-text>Your accuracy is low. Remember:</p>
        
  <ul style=""text-align:left;"">
    <li>A -> X: middle finger</li>
    <li>Anything else: index finger</li>
  </ul>

      
        <p class = block-text>You have not been responding to some trials. Please respond on every trial that requires a response.</p>
      <p class=block-text>Press <i>enter</i> to continue.</p></div>
    </font></p></div></div>",enter,test_feedback,60000.0,,test,1.0,,,,,,,,,,,,
342,,html-keyboard-response,342,363367,0.0-3.1-1.1-0.1,1636.0,,z,test_attention_check,,,test,1.0,,,,,,True,,,<p class='block-text'>Press the key for the last letter of the English alphabet.</p> <div class=block-text>This screen will advance automatically in 1 minute.</div>,90.0,,
343,,call-function,343,363367,0.0-3.1-2.1,,,,,,,,,,,,,,,,,,,,
344,,html-keyboard-response,344,363870,0.0-3.1-3.1,,<div class = centerbox><div class = fixation>+</div></div>,,test_fixation,500.0,,test,1.0,500.0,,,,,,,,,,,
345,,html-keyboard-response,345,364373,0.0-3.1-4.1,,<div class = centerbox><div class = AX_text>A</div></div>,,test_cue,500.0,,test,1.0,500.0,AX,A,,,,,,,,,
346,,html-keyboard-response,346,367375,0.0-3.1-5.1,,<div class = centerbox><div class = fixation>+</div></div>,,test_inter-stimulus,3000.0,,test,1.0,3000.0,,,,,,,,,,,
347,,html-keyboard-response,347,368882,0.0-3.1-6.1,519.0,<div class = centerbox><div class = AX_text>X</div></div>,.,test_trial,1500.0,,test,1.0,1000.0,AX,,"['.', ',']",.,1,X,,,,,
348,,html-keyboard-response,348,370086,0.0-3.1-7.1,,<div class = centerbox><div class = fixation>+</div></div>,,test_ITI,1198.3193576595775,,test,1.0,1198.3193576595775,,,,,,,"{'min': 0, 'max': 5, 'mean': 0.5}",,,,
349,,call-function,349,370087,0.0-3.1-8.1,,,,,,,,,,,,,,,,,,,,
350,,html-keyboard-response,350,370591,0.0-3.1-9.1,,<div class = centerbox><div class = fixation>+</div></div>,,test_fixation,500.0,,test,1.0,500.0,,,,,,,,,,,
351,,html-keyboard-response,351,371097,0.0-3.1-10.1,,<div class = centerbox><div class = AX_text>A</div></div>,,test_cue,500.0,,test,1.0,500.0,AX,A,,,,,,,,,
352,,html-keyboard-response,352,374099,0.0-3.1-11.1,,<div class = centerbox><div class = fixation>+</div></div>,,test_inter-stimulus,3000.0,,test,1.0,3000.0,,,,,,,,,,,
353,,html-keyboard-response,353,375605,0.0-3.1-12.1,610.0,<div class = centerbox><div class = AX_text>X</div></div>,.,test_trial,1500.0,,test,1.0,1000.0,AX,,"['.', ',']",.,1,X,,,,,
354,,html-keyboard-response,354,376006,0.0-3.1-13.1,,<div class = centerbox><div class = fixation>+</div></div>,,test_ITI,395.5659977172462,,test,1.0,395.5659977172462,,,,,,,"{'min': 0, 'max': 5, 'mean': 0.5}",,,,
355,,call-function,355,376006,0.0-3.1-14.1,,,,,,,,,,,,,,,,,,,,
356,,html-keyboard-response,356,376511,0.0-3.1-15.1,,<div class = centerbox><div class = fixation>+</div></div>,,test_fixation,500.0,,test,1.0,500.0,,,,,,,,,,,
357,,html-keyboard-response,357,377014,0.0-3.1-16.1,,<div class = centerbox><div class = AX_text>Q</div></div>,,test_cue,500.0,,test,1.0,500.0,BY,Q,,,,,,,,,
358,,html-keyboard-response,358,380020,0.0-3.1-17.1,,<div class = centerbox><div class = fixation>+</div></div>,,test_inter-stimulus,3000.0,,test,1.0,3000.0,,,,,,,,,,,
359,,html-keyboard-response,359,381525,0.0-3.1-18.1,,<div class = centerbox><div class = AX_text>H</div></div>,,test_trial,1500.0,,test,1.0,1000.0,BY,,"['.', ',']",",",0,H,,,,,
360,,html-keyboard-response,360,381743,0.0-3.1-19.1,,<div class = centerbox><div class = fixation>+</div></div>,,test_ITI,212.1743703690251,,test,1.0,212.1743703690251,,,,,,,"{'min': 0, 'max': 5, 'mean': 0.5}",,,,
361,,call-function,361,381744,0.0-3.1-20.1,,,,,,,,,,,,,,,,,,,,
362,,html-keyboard-response,362,382246,0.0-3.1-21.1,,<div class = centerbox><div class = fixation>+</div></div>,,test_fixation,500.0,,test,1.0,500.0,,,,,,,,,,,
363,,html-keyboard-response,363,382753,0.0-3.1-22.1,,<div class = centerbox><div class = AX_text>A</div></div>,,test_cue,500.0,,test,1.0,500.0,AY,A,,,,,,,,,
364,,html-keyboard-response,364,385759,0.0-3.1-23.1,,<div class = centerbox><div class = fixation>+</div></div>,,test_inter-stimulus,3000.0,,test,1.0,3000.0,,,,,,,,,,,
365,,html-keyboard-response,365,387264,0.0-3.1-24.1,,<div class = centerbox><div class = AX_text>B</div></div>,,test_trial,1500.0,,test,1.0,1000.0,AY,,"['.', ',']",",",0,B,,,,,
366,,html-keyboard-response,366,387529,0.0-3.1-25.1,,<div class = centerbox><div class = fixation>+</div></div>,,test_ITI,258.78562447704644,,test,1.0,258.78562447704644,,,,,,,"{'min': 0, 'max': 5, 'mean': 0.5}",,,,
367,,call-function,367,387529,0.0-3.1-26.1,,,,,,,,,,,,,,,,,,,,
368,,html-keyboard-response,368,388034,0.0-3.1-27.1,,<div class = centerbox><div class = fixation>+</div></div>,,test_fixation,500.0,,test,1.0,500.0,,,,,,,,,,,
369,,html-keyboard-response,369,388538,0.0-3.1-28.1,,<div class = centerbox><div class = AX_text>H</div></div>,,test_cue,500.0,,test,1.0,500.0,BY,H,,,,,,,,,
370,,html-keyboard-response,370,391545,0.0-3.1-29.1,,<div class = centerbox><div class = fixation>+</div></div>,,test_inter-stimulus,3000.0,,test,1.0,3000.0,,,,,,,,,,,
371,,html-keyboard-response,371,393050,0.0-3.1-30.1,,<div class = centerbox><div class = AX_text>R</div></div>,,test_trial,1500.0,,test,1.0,1000.0,BY,,"['.', ',']",",",0,R,,,,,
372,,html-keyboard-response,372,393394,0.0-3.1-31.1,,<div class = centerbox><div class = fixation>+</div></div>,,test_ITI,340.7684960812041,,test,1.0,340.7684960812041,,,,,,,"{'min': 0, 'max': 5, 'mean': 0.5}",,,,
373,,call-function,373,393395,0.0-3.1-32.1,,,,,,,,,,,,,,,,,,,,
374,,html-keyboard-response,374,393900,0.0-3.1-33.1,,<div class = centerbox><div class = fixation>+</div></div>,,test_fixation,500.0,,test,1.0,500.0,,,,,,,,,,,
375,,html-keyboard-response,375,394405,0.0-3.1-34.1,,<div class = centerbox><div class = AX_text>A</div></div>,,test_cue,500.0,,test,1.0,500.0,AY,A,,,,,,,,,
376,,html-keyboard-response,376,397411,0.0-3.1-35.1,,<div class = centerbox><div class = fixation>+</div></div>,,test_inter-stimulus,3000.0,,test,1.0,3000.0,,,,,,,,,,,
377,,html-keyboard-response,377,398917,0.0-3.1-36.1,,<div class = centerbox><div class = AX_text>D</div></div>,,test_trial,1500.0,,test,1.0,1000.0,AY,,"['.', ',']",",",0,D,,,,,
378,,html-keyboard-response,378,398971,0.0-3.1-37.1,,<div class = centerbox><div class = fixation>+</div></div>,,test_ITI,49.290255333630846,,test,1.0,49.290255333630846,,,,,,,"{'min': 0, 'max': 5, 'mean': 0.5}",,,,
379,,call-function,379,398971,0.0-3.1-38.1,,,,,,,,,,,,,,,,,,,,
380,,html-keyboard-response,380,399476,0.0-3.1-39.1,,<div class = centerbox><div class = fixation>+</div></div>,,test_fixation,500.0,,test,1.0,500.0,,,,,,,,,,,
381,,html-keyboard-response,381,399981,0.0-3.1-40.1,,<div class = centerbox><div class = AX_text>O</div></div>,,test_cue,500.0,,test,1.0,500.0,BY,O,,,,,,,,,
382,,html-keyboard-response,382,402988,0.0-3.1-41.1,,<div class = centerbox><div class = fixation>+</div></div>,,test_inter-stimulus,3000.0,,test,1.0,3000.0,,,,,,,,,,,
383,,html-keyboard-response,383,404494,0.0-3.1-42.1,,<div class = centerbox><div class = AX_text>G</div></div>,,test_trial,1500.0,,test,1.0,1000.0,BY,,"['.', ',']",",",0,G,,,,,
384,,html-keyboard-response,384,404551,0.0-3.1-43.1,,<div class = centerbox><div class = fixation>+</div></div>,,test_ITI,50.48447693609263,,test,1.0,50.48447693609263,,,,,,,"{'min': 0, 'max': 5, 'mean': 0.5}",,,,
385,,call-function,385,404551,0.0-3.1-44.1,,,,,,,,,,,,,,,,,,,,
386,,html-keyboard-response,386,405056,0.0-3.1-45.1,,<div class = centerbox><div class = fixation>+</div></div>,,test_fixation,500.0,,test,1.0,500.0,,,,,,,,,,,
387,,html-keyboard-response,387,405560,0.0-3.1-46.1,,<div class = centerbox><div class = AX_text>A</div></div>,,test_cue,500.0,,test,1.0,500.0,AX,A,,,,,,,,,
388,,html-keyboard-response,388,408567,0.0-3.1-47.1,,<div class = centerbox><div class = fixation>+</div></div>,,test_inter-stimulus,3000.0,,test,1.0,3000.0,,,,,,,,,,,
389,,html-keyboard-response,389,410070,0.0-3.1-48.1,,<div class = centerbox><div class = AX_text>X</div></div>,,test_trial,1500.0,,test,1.0,1000.0,AX,,"['.', ',']",.,0,X,,,,,
390,,html-keyboard-response,390,410720,0.0-3.1-49.1,,<div class = centerbox><div class = fixation>+</div></div>,,test_ITI,643.1705260246048,,test,1.0,643.1705260246048,,,,,,,"{'min': 0, 'max': 5, 'mean': 0.5}",,,,
391,,call-function,391,410720,0.0-3.1-50.1,,,,,,,,,,,,,,,,,,,,
392,,html-keyboard-response,392,411223,0.0-3.1-51.1,,<div class = centerbox><div class = fixation>+</div></div>,,test_fixation,500.0,,test,1.0,500.0,,,,,,,,,,,
393,,html-keyboard-response,393,411726,0.0-3.1-52.1,,<div class = centerbox><div class = AX_text>S</div></div>,,test_cue,500.0,,test,1.0,500.0,BY,S,,,,,,,,,
394,,html-keyboard-response,394,414732,0.0-3.1-53.1,,<div class = centerbox><div class = fixation>+</div></div>,,test_inter-stimulus,3000.0,,test,1.0,3000.0,,,,,,,,,,,
395,,html-keyboard-response,395,416239,0.0-3.1-54.1,,<div class = centerbox><div class = AX_text>H</div></div>,,test_trial,1500.0,,test,1.0,1000.0,BY,,"['.', ',']",",",0,H,,,,,
396,,html-keyboard-response,396,417442,0.0-3.1-55.1,,<div class = centerbox><div class = fixation>+</div></div>,,test_ITI,1197.7353971882685,,test,1.0,1197.7353971882685,,,,,,,"{'min': 0, 'max': 5, 'mean': 0.5}",,,,
397,,call-function,397,417442,0.0-3.1-56.1,,,,,,,,,,,,,,,,,,,,
398,,html-keyboard-response,398,417946,0.0-3.1-57.1,,<div class = centerbox><div class = fixation>+</div></div>,,test_fixation,500.0,,test,1.0,500.0,,,,,,,,,,,
399,,html-keyboard-response,399,418452,0.0-3.1-58.1,,<div class = centerbox><div class = AX_text>A</div></div>,,test_cue,500.0,,test,1.0,500.0,AX,A,,,,,,,,,
400,,html-keyboard-response,400,421459,0.0-3.1-59.1,,<div class = centerbox><div class = fixation>+</div></div>,,test_inter-stimulus,3000.0,,test,1.0,3000.0,,,,,,,,,,,
401,,html-keyboard-response,401,422965,0.0-3.1-60.1,,<div class = centerbox><div class = AX_text>X</div></div>,,test_trial,1500.0,,test,1.0,1000.0,AX,,"['.', ',']",.,0,X,,,,,
402,,html-keyboard-response,402,423173,0.0-3.1-61.1,,<div class = centerbox><div class = fixation>+</div></div>,,test_ITI,202.17767189324462,,test,1.0,202.17767189324462,,,,,,,"{'min': 0, 'max': 5, 'mean': 0.5}",,,,
403,,call-function,403,423174,0.0-3.1-62.1,,,,,,,,,,,,,,,,,,,,
404,,html-keyboard-response,404,423676,0.0-3.1-63.1,,<div class = centerbox><div class = fixation>+</div></div>,,test_fixation,500.0,,test,1.0,500.0,,,,,,,,,,,
405,,html-keyboard-response,405,424181,0.0-3.1-64.1,,<div class = centerbox><div class = AX_text>A</div></div>,,test_cue,500.0,,test,1.0,500.0,AY,A,,,,,,,,,
406,,html-keyboard-response,406,427185,0.0-3.1-65.1,,<div class = centerbox><div class = fixation>+</div></div>,,test_inter-stimulus,3000.0,,test,1.0,3000.0,,,,,,,,,,,
407,,html-keyboard-response,407,428692,0.0-3.1-66.1,,<div class = centerbox><div class = AX_text>Z</div></div>,,test_trial,1500.0,,test,1.0,1000.0,AY,,"['.', ',']",",",0,Z,,,,,
408,,html-keyboard-response,408,429180,0.0-3.1-67.1,,<div class = centerbox><div class = fixation>+</div></div>,,test_ITI,486.1479850876705,,test,1.0,486.1479850876705,,,,,,,"{'min': 0, 'max': 5, 'mean': 0.5}",,,,
409,,call-function,409,429181,0.0-3.1-68.1,,,,,,,,,,,,,,,,,,,,
410,,html-keyboard-response,410,429685,0.0-3.1-69.1,,<div class = centerbox><div class = fixation>+</div></div>,,test_fixation,500.0,,test,1.0,500.0,,,,,,,,,,,
411,,html-keyboard-response,411,430187,0.0-3.1-70.1,,<div class = centerbox><div class = AX_text>N</div></div>,,test_cue,500.0,,test,1.0,500.0,BX,N,,,,,,,,,
412,,html-keyboard-response,412,433193,0.0-3.1-71.1,,<div class = centerbox><div class = fixation>+</div></div>,,test_inter-stimulus,3000.0,,test,1.0,3000.0,,,,,,,,,,,
413,,html-keyboard-response,413,434699,0.0-3.1-72.1,,<div class = centerbox><div class = AX_text>X</div></div>,,test_trial,1500.0,,test,1.0,1000.0,BX,,"['.', ',']",",",0,X,,,,,
414,,html-keyboard-response,414,434953,0.0-3.1-73.1,,<div class = centerbox><div class = fixation>+</div></div>,,test_ITI,248.4342875993899,,test,1.0,248.4342875993899,,,,,,,"{'min': 0, 'max': 5, 'mean': 0.5}",,,,
415,,call-function,415,434954,0.0-3.1-74.1,,,,,,,,,,,,,,,,,,,,
416,,html-keyboard-response,416,435460,0.0-3.1-75.1,,<div class = centerbox><div class = fixation>+</div></div>,,test_fixation,500.0,,test,1.0,500.0,,,,,,,,,,,
417,,html-keyboard-response,417,435962,0.0-3.1-76.1,,<div class = centerbox><div class = AX_text>A</div></div>,,test_cue,500.0,,test,1.0,500.0,AX,A,,,,,,,,,
418,,html-keyboard-response,418,438967,0.0-3.1-77.1,,<div class = centerbox><div class = fixation>+</div></div>,,test_inter-stimulus,3000.0,,test,1.0,3000.0,,,,,,,,,,,
419,,html-keyboard-response,419,440473,0.0-3.1-78.1,,<div class = centerbox><div class = AX_text>X</div></div>,,test_trial,1500.0,,test,1.0,1000.0,AX,,"['.', ',']",.,0,X,,,,,
420,,html-keyboard-response,420,440524,0.0-3.1-79.1,,<div class = centerbox><div class = fixation>+</div></div>,,test_ITI,48.30600428122341,,test,1.0,48.30600428122341,,,,,,,"{'min': 0, 'max': 5, 'mean': 0.5}",,,,
421,,call-function,421,440525,0.0-3.1-80.1,,,,,,,,,,,,,,,,,,,,
422,,html-keyboard-response,422,441027,0.0-3.1-81.1,,<div class = centerbox><div class = fixation>+</div></div>,,test_fixation,500.0,,test,1.0,500.0,,,,,,,,,,,
423,,html-keyboard-response,423,441531,0.0-3.1-82.1,,<div class = centerbox><div class = AX_text>M</div></div>,,test_cue,500.0,,test,1.0,500.0,BY,M,,,,,,,,,
424,,html-keyboard-response,424,444538,0.0-3.1-83.1,,<div class = centerbox><div class = fixation>+</div></div>,,test_inter-stimulus,3000.0,,test,1.0,3000.0,,,,,,,,,,,
425,,html-keyboard-response,425,446044,0.0-3.1-84.1,,<div class = centerbox><div class = AX_text>F</div></div>,,test_trial,1500.0,,test,1.0,1000.0,BY,,"['.', ',']",",",0,F,,,,,
426,,html-keyboard-response,426,446204,0.0-3.1-85.1,,<div class = centerbox><div class = fixation>+</div></div>,,test_ITI,156.9226411645403,,test,1.0,156.9226411645403,,,,,,,"{'min': 0, 'max': 5, 'mean': 0.5}",,,,
427,,call-function,427,446204,0.0-3.1-86.1,,,,,,,,,,,,,,,,,,,,
428,,html-keyboard-response,428,446708,0.0-3.1-87.1,,<div class = centerbox><div class = fixation>+</div></div>,,test_fixation,500.0,,test,1.0,500.0,,,,,,,,,,,
429,,html-keyboard-response,429,447213,0.0-3.1-88.1,,<div class = centerbox><div class = AX_text>P</div></div>,,test_cue,500.0,,test,1.0,500.0,BX,P,,,,,,,,,
430,,html-keyboard-response,430,450220,0.0-3.1-89.1,,<div class = centerbox><div class = fixation>+</div></div>,,test_inter-stimulus,3000.0,,test,1.0,3000.0,,,,,,,,,,,
431,,html-keyboard-response,431,451726,0.0-3.1-90.1,,<div class = centerbox><div class = AX_text>X</div></div>,,test_trial,1500.0,,test,1.0,1000.0,BX,,"['.', ',']",",",0,X,,,,,
432,,html-keyboard-response,432,452062,0.0-3.1-91.1,,<div class = centerbox><div class = fixation>+</div></div>,,test_ITI,333.7698462871325,,test,1.0,333.7698462871325,,,,,,,"{'min': 0, 'max': 5, 'mean': 0.5}",,,,
433,,call-function,433,452063,0.0-3.1-92.1,,,,,,,,,,,,,,,,,,,,
434,,html-keyboard-response,434,452568,0.0-3.1-93.1,,<div class = centerbox><div class = fixation>+</div></div>,,test_fixation,500.0,,test,1.0,500.0,,,,,,,,,,,
435,,html-keyboard-response,435,453070,0.0-3.1-94.1,,<div class = centerbox><div class = AX_text>Q</div></div>,,test_cue,500.0,,test,1.0,500.0,BX,Q,,,,,,,,,
436,,html-keyboard-response,436,456077,0.0-3.1-95.1,,<div class = centerbox><div class = fixation>+</div></div>,,test_inter-stimulus,3000.0,,test,1.0,3000.0,,,,,,,,,,,
437,,html-keyboard-response,437,457584,0.0-3.1-96.1,,<div class = centerbox><div class = AX_text>X</div></div>,,test_trial,1500.0,,test,1.0,1000.0,BX,,"['.', ',']",",",0,X,,,,,
438,,html-keyboard-response,438,457641,0.0-3.1-97.1,,<div class = centerbox><div class = fixation>+</div></div>,,test_ITI,51.94358565528617,,test,1.0,51.94358565528617,,,,,,,"{'min': 0, 'max': 5, 'mean': 0.5}",,,,
439,,call-function,439,457641,0.0-3.1-98.1,,,,,,,,,,,,,,,,,,,,
440,,html-keyboard-response,440,458145,0.0-3.1-99.1,,<div class = centerbox><div class = fixation>+</div></div>,,test_fixation,500.0,,test,1.0,500.0,,,,,,,,,,,
441,,html-keyboard-response,441,458648,0.0-3.1-100.1,,<div class = centerbox><div class = AX_text>H</div></div>,,test_cue,500.0,,test,1.0,500.0,BY,H,,,,,,,,,
442,,html-keyboard-response,442,461655,0.0-3.1-101.1,,<div class = centerbox><div class = fixation>+</div></div>,,test_inter-stimulus,3000.0,,test,1.0,3000.0,,,,,,,,,,,
443,,html-keyboard-response,443,463162,0.0-3.1-102.1,,<div class = centerbox><div class = AX_text>L</div></div>,,test_trial,1500.0,,test,1.0,1000.0,BY,,"['.', ',']",",",0,L,,,,,
444,,html-keyboard-response,444,463269,0.0-3.1-103.1,,<div class = centerbox><div class = fixation>+</div></div>,,test_ITI,104.68843255429454,,test,1.0,104.68843255429454,,,,,,,"{'min': 0, 'max': 5, 'mean': 0.5}",,,,
445,,call-function,445,463270,0.0-3.1-104.1,,,,,,,,,,,,,,,,,,,,
446,,html-keyboard-response,446,463773,0.0-3.1-105.1,,<div class = centerbox><div class = fixation>+</div></div>,,test_fixation,500.0,,test,1.0,500.0,,,,,,,,,,,
447,,html-keyboard-response,447,464279,0.0-3.1-106.1,,<div class = centerbox><div class = AX_text>S</div></div>,,test_cue,500.0,,test,1.0,500.0,BY,S,,,,,,,,,
448,,html-keyboard-response,448,467286,0.0-3.1-107.1,,<div class = centerbox><div class = fixation>+</div></div>,,test_inter-stimulus,3000.0,,test,1.0,3000.0,,,,,,,,,,,
449,,html-keyboard-response,449,468792,0.0-3.1-108.1,,<div class = centerbox><div class = AX_text>C</div></div>,,test_trial,1500.0,,test,1.0,1000.0,BY,,"['.', ',']",",",0,C,,,,,
450,,html-keyboard-response,450,468801,0.0-3.1-109.1,,<div class = centerbox><div class = fixation>+</div></div>,,test_ITI,7.0056563487198105,,test,1.0,7.0056563487198105,,,,,,,"{'min': 0, 'max': 5, 'mean': 0.5}",,,,
451,,call-function,451,468802,0.0-3.1-110.1,,,,,,,,,,,,,,,,,,,,
452,,html-keyboard-response,452,469303,0.0-3.1-111.1,,<div class = centerbox><div class = fixation>+</div></div>,,test_fixation,500.0,,test,1.0,500.0,,,,,,,,,,,
453,,html-keyboard-response,453,469807,0.0-3.1-112.1,,<div class = centerbox><div class = AX_text>A</div></div>,,test_cue,500.0,,test,1.0,500.0,AY,A,,,,,,,,,
454,,html-keyboard-response,454,472813,0.0-3.1-113.1,,<div class = centerbox><div class = fixation>+</div></div>,,test_inter-stimulus,3000.0,,test,1.0,3000.0,,,,,,,,,,,
455,,html-keyboard-response,455,474320,0.0-3.1-114.1,,<div class = centerbox><div class = AX_text>M</div></div>,,test_trial,1500.0,,test,1.0,1000.0,AY,,"['.', ',']",",",0,M,,,,,
456,,html-keyboard-response,456,474522,0.0-3.1-115.1,,<div class = centerbox><div class = fixation>+</div></div>,,test_ITI,196.72710368977127,,test,1.0,196.72710368977127,,,,,,,"{'min': 0, 'max': 5, 'mean': 0.5}",,,,
457,,call-function,457,474523,0.0-3.1-116.1,,,,,,,,,,,,,,,,,,,,
458,,html-keyboard-response,458,475025,0.0-3.1-117.1,,<div class = centerbox><div class = fixation>+</div></div>,,test_fixation,500.0,,test,1.0,500.0,,,,,,,,,,,
459,,html-keyboard-response,459,475528,0.0-3.1-118.1,,<div class = centerbox><div class = AX_text>A</div></div>,,test_cue,500.0,,test,1.0,500.0,AX,A,,,,,,,,,
460,,html-keyboard-response,460,478535,0.0-3.1-119.1,,<div class = centerbox><div class = fixation>+</div></div>,,test_inter-stimulus,3000.0,,test,1.0,3000.0,,,,,,,,,,,
461,,html-keyboard-response,461,480041,0.0-3.1-120.1,,<div class = centerbox><div class = AX_text>X</div></div>,,test_trial,1500.0,,test,1.0,1000.0,AX,,"['.', ',']",.,0,X,,,,,
462,,html-keyboard-response,462,480071,0.0-3.1-121.1,,<div class = centerbox><div class = fixation>+</div></div>,,test_ITI,28.029628914177632,,test,1.0,28.029628914177632,,,,,,,"{'min': 0, 'max': 5, 'mean': 0.5}",,,,
463,,call-function,463,480071,0.0-3.1-122.1,,,,,,,,,,,,,,,,,,,,
464,,html-keyboard-response,464,480574,0.0-3.1-123.1,,<div class = centerbox><div class = fixation>+</div></div>,,test_fixation,500.0,,test,1.0,500.0,,,,,,,,,,,
465,,html-keyboard-response,465,481079,0.0-3.1-124.1,,<div class = centerbox><div class = AX_text>A</div></div>,,test_cue,500.0,,test,1.0,500.0,AY,A,,,,,,,,,
466,,html-keyboard-response,466,484085,0.0-3.1-125.1,,<div class = centerbox><div class = fixation>+</div></div>,,test_inter-stimulus,3000.0,,test,1.0,3000.0,,,,,,,,,,,
467,,html-keyboard-response,467,485588,0.0-3.1-126.1,,<div class = centerbox><div class = AX_text>F</div></div>,,test_trial,1500.0,,test,1.0,1000.0,AY,,"['.', ',']",",",0,F,,,,,
468,,html-keyboard-response,468,486623,0.0-3.1-127.1,,<div class = centerbox><div class = fixation>+</div></div>,,test_ITI,1030.0881548586092,,test,1.0,1030.0881548586092,,,,,,,"{'min': 0, 'max': 5, 'mean': 0.5}",,,,
469,,call-function,469,486624,0.0-3.1-128.1,,,,,,,,,,,,,,,,,,,,
470,,html-keyboard-response,470,487127,0.0-3.1-129.1,,<div class = centerbox><div class = fixation>+</div></div>,,test_fixation,500.0,,test,1.0,500.0,,,,,,,,,,,
471,,html-keyboard-response,471,487631,0.0-3.1-130.1,,<div class = centerbox><div class = AX_text>A</div></div>,,test_cue,500.0,,test,1.0,500.0,AX,A,,,,,,,,,
472,,html-keyboard-response,472,490637,0.0-3.1-131.1,,<div class = centerbox><div class = fixation>+</div></div>,,test_inter-stimulus,3000.0,,test,1.0,3000.0,,,,,,,,,,,
473,,html-keyboard-response,473,492144,0.0-3.1-132.1,,<div class = centerbox><div class = AX_text>X</div></div>,,test_trial,1500.0,,test,1.0,1000.0,AX,,"['.', ',']",.,0,X,,,,,
474,,html-keyboard-response,474,492500,0.0-3.1-133.1,,<div class = centerbox><div class = fixation>+</div></div>,,test_ITI,350.65963816892946,,test,1.0,350.65963816892946,,,,,,,"{'min': 0, 'max': 5, 'mean': 0.5}",,,,
475,,call-function,475,492500,0.0-3.1-134.1,,,,,,,,,,,,,,,,,,,,
476,,html-keyboard-response,476,493002,0.0-3.1-135.1,,<div class = centerbox><div class = fixation>+</div></div>,,test_fixation,500.0,,test,1.0,500.0,,,,,,,,,,,
477,,html-keyboard-response,477,493506,0.0-3.1-136.1,,<div class = centerbox><div class = AX_text>E</div></div>,,test_cue,500.0,,test,1.0,500.0,BX,E,,,,,,,,,
478,,html-keyboard-response,478,496511,0.0-3.1-137.1,,<div class = centerbox><div class = fixation>+</div></div>,,test_inter-stimulus,3000.0,,test,1.0,3000.0,,,,,,,,,,,
479,,html-keyboard-response,479,498015,0.0-3.1-138.1,,<div class = centerbox><div class = AX_text>X</div></div>,,test_trial,1500.0,,test,1.0,1000.0,BX,,"['.', ',']",",",0,X,,,,,
480,,html-keyboard-response,480,498120,0.0-3.1-139.1,,<div class = centerbox><div class = fixation>+</div></div>,,test_ITI,102.02168383383233,,test,1.0,102.02168383383233,,,,,,,"{'min': 0, 'max': 5, 'mean': 0.5}",,,,
481,,call-function,481,498120,0.0-3.1-140.1,,,,,,,,,,,,,,,,,,,,
482,,html-keyboard-response,482,498623,0.0-3.1-141.1,,<div class = centerbox><div class = fixation>+</div></div>,,test_fixation,500.0,,test,1.0,500.0,,,,,,,,,,,
483,,html-keyboard-response,483,499125,0.0-3.1-142.1,,<div class = centerbox><div class = AX_text>A</div></div>,,test_cue,500.0,,test,1.0,500.0,AY,A,,,,,,,,,
484,,html-keyboard-response,484,502132,0.0-3.1-143.1,,<div class = centerbox><div class = fixation>+</div></div>,,test_inter-stimulus,3000.0,,test,1.0,3000.0,,,,,,,,,,,
485,,html-keyboard-response,485,503638,0.0-3.1-144.1,,<div class = centerbox><div class = AX_text>Z</div></div>,,test_trial,1500.0,,test,1.0,1000.0,AY,,"['.', ',']",",",0,Z,,,,,
486,,html-keyboard-response,486,504288,0.0-3.1-145.1,,<div class = centerbox><div class = fixation>+</div></div>,,test_ITI,643.2626142425185,,test,1.0,643.2626142425185,,,,,,,"{'min': 0, 'max': 5, 'mean': 0.5}",,,,
487,,call-function,487,504288,0.0-3.1-146.1,,,,,,,,,,,,,,,,,,,,
488,,html-keyboard-response,488,504793,0.0-3.1-147.1,,<div class = centerbox><div class = fixation>+</div></div>,,test_fixation,500.0,,test,1.0,500.0,,,,,,,,,,,
489,,html-keyboard-response,489,505297,0.0-3.1-148.1,,<div class = centerbox><div class = AX_text>A</div></div>,,test_cue,500.0,,test,1.0,500.0,AX,A,,,,,,,,,
490,,html-keyboard-response,490,508303,0.0-3.1-149.1,,<div class = centerbox><div class = fixation>+</div></div>,,test_inter-stimulus,3000.0,,test,1.0,3000.0,,,,,,,,,,,
491,,html-keyboard-response,491,509809,0.0-3.1-150.1,,<div class = centerbox><div class = AX_text>X</div></div>,,test_trial,1500.0,,test,1.0,1000.0,AX,,"['.', ',']",.,0,X,,,,,
492,,html-keyboard-response,492,510168,0.0-3.1-151.1,,<div class = centerbox><div class = fixation>+</div></div>,,test_ITI,356.8740046560939,,test,1.0,356.8740046560939,,,,,,,"{'min': 0, 'max': 5, 'mean': 0.5}",,,,
493,,call-function,493,510168,0.0-3.1-152.1,,,,,,,,,,,,,,,,,,,,
494,,html-keyboard-response,494,510674,0.0-3.1-153.1,,<div class = centerbox><div class = fixation>+</div></div>,,test_fixation,500.0,,test,1.0,500.0,,,,,,,,,,,
495,,html-keyboard-response,495,511176,0.0-3.1-154.1,,<div class = centerbox><div class = AX_text>A</div></div>,,test_cue,500.0,,test,1.0,500.0,AY,A,,,,,,,,,
496,,html-keyboard-response,496,514183,0.0-3.1-155.1,,<div class = centerbox><div class = fixation>+</div></div>,,test_inter-stimulus,3000.0,,test,1.0,3000.0,,,,,,,,,,,
497,,html-keyboard-response,497,515689,0.0-3.1-156.1,,<div class = centerbox><div class = AX_text>T</div></div>,,test_trial,1500.0,,test,1.0,1000.0,AY,,"['.', ',']",",",0,T,,,,,
498,,html-keyboard-response,498,516385,0.0-3.1-157.1,,<div class = centerbox><div class = fixation>+</div></div>,,test_ITI,689.592157329353,,test,1.0,689.592157329353,,,,,,,"{'min': 0, 'max': 5, 'mean': 0.5}",,,,
499,,call-function,499,516385,0.0-3.1-158.1,,,,,,,,,,,,,,,,,,,,
500,,html-keyboard-response,500,516889,0.0-3.1-159.1,,<div class = centerbox><div class = fixation>+</div></div>,,test_fixation,500.0,,test,1.0,500.0,,,,,,,,,,,
501,,html-keyboard-response,501,517391,0.0-3.1-160.1,,<div class = centerbox><div class = AX_text>A</div></div>,,test_cue,500.0,,test,1.0,500.0,AX,A,,,,,,,,,
502,,html-keyboard-response,502,520398,0.0-3.1-161.1,,<div class = centerbox><div class = fixation>+</div></div>,,test_inter-stimulus,3000.0,,test,1.0,3000.0,,,,,,,,,,,
503,,html-keyboard-response,503,521904,0.0-3.1-162.1,,<div class = centerbox><div class = AX_text>X</div></div>,,test_trial,1500.0,,test,1.0,1000.0,AX,,"['.', ',']",.,0,X,,,,,
504,,html-keyboard-response,504,522566,0.0-3.1-163.1,,<div class = centerbox><div class = fixation>+</div></div>,,test_ITI,655.3354284921481,,test,1.0,655.3354284921481,,,,,,,"{'min': 0, 'max': 5, 'mean': 0.5}",,,,
505,,call-function,505,522566,0.0-3.1-164.1,,,,,,,,,,,,,,,,,,,,
506,,html-keyboard-response,506,523070,0.0-3.1-165.1,,<div class = centerbox><div class = fixation>+</div></div>,,test_fixation,500.0,,test,1.0,500.0,,,,,,,,,,,
507,,html-keyboard-response,507,523574,0.0-3.1-166.1,,<div class = centerbox><div class = AX_text>A</div></div>,,test_cue,500.0,,test,1.0,500.0,AY,A,,,,,,,,,
508,,html-keyboard-response,508,526580,0.0-3.1-167.1,,<div class = centerbox><div class = fixation>+</div></div>,,test_inter-stimulus,3000.0,,test,1.0,3000.0,,,,,,,,,,,
509,,html-keyboard-response,509,528084,0.0-3.1-168.1,,<div class = centerbox><div class = AX_text>E</div></div>,,test_trial,1500.0,,test,1.0,1000.0,AY,,"['.', ',']",",",0,E,,,,,
510,,html-keyboard-response,510,528330,0.0-3.1-169.1,,<div class = centerbox><div class = fixation>+</div></div>,,test_ITI,243.6262234980396,,test,1.0,243.6262234980396,,,,,,,"{'min': 0, 'max': 5, 'mean': 0.5}",,,,
511,,call-function,511,528331,0.0-3.1-170.1,,,,,,,,,,,,,,,,,,,,
512,,html-keyboard-response,512,528833,0.0-3.1-171.1,,<div class = centerbox><div class = fixation>+</div></div>,,test_fixation,500.0,,test,1.0,500.0,,,,,,,,,,,
513,,html-keyboard-response,513,529340,0.0-3.1-172.1,,<div class = centerbox><div class = AX_text>A</div></div>,,test_cue,500.0,,test,1.0,500.0,AX,A,,,,,,,,,
514,,html-keyboard-response,514,532347,0.0-3.1-173.1,,<div class = centerbox><div class = fixation>+</div></div>,,test_inter-stimulus,3000.0,,test,1.0,3000.0,,,,,,,,,,,
515,,html-keyboard-response,515,533853,0.0-3.1-174.1,,<div class = centerbox><div class = AX_text>X</div></div>,,test_trial,1500.0,,test,1.0,1000.0,AX,,"['.', ',']",.,0,X,,,,,
516,,html-keyboard-response,516,533964,0.0-3.1-175.1,,<div class = centerbox><div class = fixation>+</div></div>,,test_ITI,105.00036937042177,,test,1.0,105.00036937042177,,,,,,,"{'min': 0, 'max': 5, 'mean': 0.5}",,,,
517,,call-function,517,533965,0.0-3.1-176.1,,,,,,,,,,,,,,,,,,,,
518,,html-keyboard-response,518,534469,0.0-3.1-177.1,,<div class = centerbox><div class = fixation>+</div></div>,,test_fixation,500.0,,test,1.0,500.0,,,,,,,,,,,
519,,html-keyboard-response,519,534973,0.0-3.1-178.1,,<div class = centerbox><div class = AX_text>A</div></div>,,test_cue,500.0,,test,1.0,500.0,AX,A,,,,,,,,,
520,,html-keyboard-response,520,537976,0.0-3.1-179.1,,<div class = centerbox><div class = fixation>+</div></div>,,test_inter-stimulus,3000.0,,test,1.0,3000.0,,,,,,,,,,,
521,,html-keyboard-response,521,539478,0.0-3.1-180.1,,<div class = centerbox><div class = AX_text>X</div></div>,,test_trial,1500.0,,test,1.0,1000.0,AX,,"['.', ',']",.,0,X,,,,,
522,,html-keyboard-response,522,539783,0.0-3.1-181.1,,<div class = centerbox><div class = fixation>+</div></div>,,test_ITI,299.9673987149581,,test,1.0,299.9673987149581,,,,,,,"{'min': 0, 'max': 5, 'mean': 0.5}",,,,
523,,call-function,523,539784,0.0-3.1-182.1,,,,,,,,,,,,,,,,,,,,
524,,html-keyboard-response,524,540290,0.0-3.1-183.1,,<div class = centerbox><div class = fixation>+</div></div>,,test_fixation,500.0,,test,1.0,500.0,,,,,,,,,,,
525,,html-keyboard-response,525,540794,0.0-3.1-184.1,,<div class = centerbox><div class = AX_text>V</div></div>,,test_cue,500.0,,test,1.0,500.0,BY,V,,,,,,,,,
526,,html-keyboard-response,526,543800,0.0-3.1-185.1,,<div class = centerbox><div class = fixation>+</div></div>,,test_inter-stimulus,3000.0,,test,1.0,3000.0,,,,,,,,,,,
527,,html-keyboard-response,527,545306,0.0-3.1-186.1,,<div class = centerbox><div class = AX_text>J</div></div>,,test_trial,1500.0,,test,1.0,1000.0,BY,,"['.', ',']",",",0,J,,,,,
528,,html-keyboard-response,528,546640,0.0-3.1-187.1,,<div class = centerbox><div class = fixation>+</div></div>,,test_ITI,1327.4107500669418,,test,1.0,1327.4107500669418,,,,,,,"{'min': 0, 'max': 5, 'mean': 0.5}",,,,
529,,call-function,529,546640,0.0-3.1-188.1,,,,,,,,,,,,,,,,,,,,
530,,html-keyboard-response,530,547144,0.0-3.1-189.1,,<div class = centerbox><div class = fixation>+</div></div>,,test_fixation,500.0,,test,1.0,500.0,,,,,,,,,,,
531,,html-keyboard-response,531,547646,0.0-3.1-190.1,,<div class = centerbox><div class = AX_text>A</div></div>,,test_cue,500.0,,test,1.0,500.0,AX,A,,,,,,,,,
532,,html-keyboard-response,532,550653,0.0-3.1-191.1,,<div class = centerbox><div class = fixation>+</div></div>,,test_inter-stimulus,3000.0,,test,1.0,3000.0,,,,,,,,,,,
533,,html-keyboard-response,533,552154,0.0-3.1-192.1,,<div class = centerbox><div class = AX_text>X</div></div>,,test_trial,1500.0,,test,1.0,1000.0,AX,,"['.', ',']",.,0,X,,,,,
534,,html-keyboard-response,534,552375,0.0-3.1-193.1,,<div class = centerbox><div class = fixation>+</div></div>,,test_ITI,217.8445378808192,,test,1.0,217.8445378808192,,,,,,,"{'min': 0, 'max': 5, 'mean': 0.5}",,,,
535,,call-function,535,552376,0.0-3.1-194.1,,,,,,,,,,,,,,,,,,,,
536,,html-keyboard-response,536,552879,0.0-3.1-195.1,,<div class = centerbox><div class = fixation>+</div></div>,,test_fixation,500.0,,test,1.0,500.0,,,,,,,,,,,
537,,html-keyboard-response,537,553382,0.0-3.1-196.1,,<div class = centerbox><div class = AX_text>A</div></div>,,test_cue,500.0,,test,1.0,500.0,AX,A,,,,,,,,,
538,,html-keyboard-response,538,556388,0.0-3.1-197.1,,<div class = centerbox><div class = fixation>+</div></div>,,test_inter-stimulus,3000.0,,test,1.0,3000.0,,,,,,,,,,,
539,,html-keyboard-response,539,557894,0.0-3.1-198.1,,<div class = centerbox><div class = AX_text>X</div></div>,,test_trial,1500.0,,test,1.0,1000.0,AX,,"['.', ',']",.,0,X,,,,,
540,,html-keyboard-response,540,559219,0.0-3.1-199.1,,<div class = centerbox><div class = fixation>+</div></div>,,test_ITI,1318.232449833832,,test,1.0,1318.232449833832,,,,,,,"{'min': 0, 'max': 5, 'mean': 0.5}",,,,
541,,call-function,541,559220,0.0-3.1-200.1,,,,,,,,,,,,,,,,,,,,
542,,html-keyboard-response,542,559722,0.0-3.1-201.1,,<div class = centerbox><div class = fixation>+</div></div>,,test_fixation,500.0,,test,1.0,500.0,,,,,,,,,,,
543,,html-keyboard-response,543,560228,0.0-3.1-202.1,,<div class = centerbox><div class = AX_text>N</div></div>,,test_cue,500.0,,test,1.0,500.0,BY,N,,,,,,,,,
544,,html-keyboard-response,544,563235,0.0-3.1-203.1,,<div class = centerbox><div class = fixation>+</div></div>,,test_inter-stimulus,3000.0,,test,1.0,3000.0,,,,,,,,,,,
545,,html-keyboard-response,545,564738,0.0-3.1-204.1,,<div class = centerbox><div class = AX_text>U</div></div>,,test_trial,1500.0,,test,1.0,1000.0,BY,,"['.', ',']",",",0,U,,,,,
546,,html-keyboard-response,546,564910,0.0-3.1-205.1,,<div class = centerbox><div class = fixation>+</div></div>,,test_ITI,169.68149202295407,,test,1.0,169.68149202295407,,,,,,,"{'min': 0, 'max': 5, 'mean': 0.5}",,,,
547,,call-function,547,564911,0.0-3.1-206.1,,,,,,,,,,,,,,,,,,,,
548,,html-keyboard-response,548,565415,0.0-3.1-207.1,,<div class = centerbox><div class = fixation>+</div></div>,,test_fixation,500.0,,test,1.0,500.0,,,,,,,,,,,
549,,html-keyboard-response,549,565920,0.0-3.1-208.1,,<div class = centerbox><div class = AX_text>U</div></div>,,test_cue,500.0,,test,1.0,500.0,BX,U,,,,,,,,,
550,,html-keyboard-response,550,568927,0.0-3.1-209.1,,<div class = centerbox><div class = fixation>+</div></div>,,test_inter-stimulus,3000.0,,test,1.0,3000.0,,,,,,,,,,,
551,,html-keyboard-response,551,570433,0.0-3.1-210.1,,<div class = centerbox><div class = AX_text>X</div></div>,,test_trial,1500.0,,test,1.0,1000.0,BX,,"['.', ',']",",",0,X,,,,,
552,,html-keyboard-response,552,570665,0.0-3.1-211.1,,<div class = centerbox><div class = fixation>+</div></div>,,test_ITI,230.71196893981318,,test,1.0,230.71196893981318,,,,,,,"{'min': 0, 'max': 5, 'mean': 0.5}",,,,
553,,call-function,553,570665,0.0-3.1-212.1,,,,,,,,,,,,,,,,,,,,
554,,html-keyboard-response,554,571170,0.0-3.1-213.1,,<div class = centerbox><div class = fixation>+</div></div>,,test_fixation,500.0,,test,1.0,500.0,,,,,,,,,,,
555,,html-keyboard-response,555,571674,0.0-3.1-214.1,,<div class = centerbox><div class = AX_text>A</div></div>,,test_cue,500.0,,test,1.0,500.0,AY,A,,,,,,,,,
556,,html-keyboard-response,556,574680,0.0-3.1-215.1,,<div class = centerbox><div class = fixation>+</div></div>,,test_inter-stimulus,3000.0,,test,1.0,3000.0,,,,,,,,,,,
557,,html-keyboard-response,557,576187,0.0-3.1-216.1,,<div class = centerbox><div class = AX_text>V</div></div>,,test_trial,1500.0,,test,1.0,1000.0,AY,,"['.', ',']",",",0,V,,,,,
558,,html-keyboard-response,558,576687,0.0-3.1-217.1,,<div class = centerbox><div class = fixation>+</div></div>,,test_ITI,499.0916037315279,,test,1.0,499.0916037315279,,,,,,,"{'min': 0, 'max': 5, 'mean': 0.5}",,,,
559,,call-function,559,576688,0.0-3.1-218.1,,,,,,,,,,,,,,,,,,,,
560,,html-keyboard-response,560,577193,0.0-3.1-219.1,,<div class = centerbox><div class = fixation>+</div></div>,,test_fixation,500.0,,test,1.0,500.0,,,,,,,,,,,
561,,html-keyboard-response,561,577696,0.0-3.1-220.1,,<div class = centerbox><div class = AX_text>A</div></div>,,test_cue,500.0,,test,1.0,500.0,AX,A,,,,,,,,,
562,,html-keyboard-response,562,580703,0.0-3.1-221.1,,<div class = centerbox><div class = fixation>+</div></div>,,test_inter-stimulus,3000.0,,test,1.0,3000.0,,,,,,,,,,,
563,,html-keyboard-response,563,582210,0.0-3.1-222.1,,<div class = centerbox><div class = AX_text>X</div></div>,,test_trial,1500.0,,test,1.0,1000.0,AX,,"['.', ',']",.,0,X,,,,,
564,,html-keyboard-response,564,582889,0.0-3.1-223.1,,<div class = centerbox><div class = fixation>+</div></div>,,test_ITI,675.9055957407818,,test,1.0,675.9055957407818,,,,,,,"{'min': 0, 'max': 5, 'mean': 0.5}",,,,
565,,call-function,565,582889,0.0-3.1-224.1,,,,,,,,,,,,,,,,,,,,
566,,html-keyboard-response,566,583392,0.0-3.1-225.1,,<div class = centerbox><div class = fixation>+</div></div>,,test_fixation,500.0,,test,1.0,500.0,,,,,,,,,,,
567,,html-keyboard-response,567,583895,0.0-3.1-226.1,,<div class = centerbox><div class = AX_text>A</div></div>,,test_cue,500.0,,test,1.0,500.0,AX,A,,,,,,,,,
568,,html-keyboard-response,568,586902,0.0-3.1-227.1,,<div class = centerbox><div class = fixation>+</div></div>,,test_inter-stimulus,3000.0,,test,1.0,3000.0,,,,,,,,,,,
569,,html-keyboard-response,569,588409,0.0-3.1-228.1,,<div class = centerbox><div class = AX_text>X</div></div>,,test_trial,1500.0,,test,1.0,1000.0,AX,,"['.', ',']",.,0,X,,,,,
570,,html-keyboard-response,570,588562,0.0-3.1-229.1,,<div class = centerbox><div class = fixation>+</div></div>,,test_ITI,147.0884381342179,,test,1.0,147.0884381342179,,,,,,,"{'min': 0, 'max': 5, 'mean': 0.5}",,,,
571,,call-function,571,588562,0.0-3.1-230.1,,,,,,,,,,,,,,,,,,,,
572,,html-keyboard-response,572,589066,0.0-3.1-231.1,,<div class = centerbox><div class = fixation>+</div></div>,,test_fixation,500.0,,test,1.0,500.0,,,,,,,,,,,
573,,html-keyboard-response,573,589569,0.0-3.1-232.1,,<div class = centerbox><div class = AX_text>R</div></div>,,test_cue,500.0,,test,1.0,500.0,BY,R,,,,,,,,,
574,,html-keyboard-response,574,592576,0.0-3.1-233.1,,<div class = centerbox><div class = fixation>+</div></div>,,test_inter-stimulus,3000.0,,test,1.0,3000.0,,,,,,,,,,,
575,,html-keyboard-response,575,594083,0.0-3.1-234.1,,<div class = centerbox><div class = AX_text>I</div></div>,,test_trial,1500.0,,test,1.0,1000.0,BY,,"['.', ',']",",",0,I,,,,,
576,,html-keyboard-response,576,594384,0.0-3.1-235.1,,<div class = centerbox><div class = fixation>+</div></div>,,test_ITI,295.238860683249,,test,1.0,295.238860683249,,,,,,,"{'min': 0, 'max': 5, 'mean': 0.5}",,,,
577,,call-function,577,594385,0.0-3.1-236.1,,,,,,,,,,,,,,,,,,,,
578,,html-keyboard-response,578,594890,0.0-3.1-237.1,,<div class = centerbox><div class = fixation>+</div></div>,,test_fixation,500.0,,test,1.0,500.0,,,,,,,,,,,
579,,html-keyboard-response,579,595396,0.0-3.1-238.1,,<div class = centerbox><div class = AX_text>A</div></div>,,test_cue,500.0,,test,1.0,500.0,AX,A,,,,,,,,,
580,,html-keyboard-response,580,598402,0.0-3.1-239.1,,<div class = centerbox><div class = fixation>+</div></div>,,test_inter-stimulus,3000.0,,test,1.0,3000.0,,,,,,,,,,,
581,,html-keyboard-response,581,599908,0.0-3.1-240.1,,<div class = centerbox><div class = AX_text>X</div></div>,,test_trial,1500.0,,test,1.0,1000.0,AX,,"['.', ',']",.,0,X,,,,,
582,,html-keyboard-response,582,600199,0.0-3.1-241.1,,<div class = centerbox><div class = fixation>+</div></div>,,test_ITI,287.87202821255727,,test,1.0,287.87202821255727,,,,,,,"{'min': 0, 'max': 5, 'mean': 0.5}",,,,
583,,call-function,583,600200,0.0-3.1-242.1,,,,,,,,,,,,,,,,,,,,
584,,html-keyboard-response,584,600706,0.0-3.1-243.1,,<div class = centerbox><div class = fixation>+</div></div>,,test_fixation,500.0,,test,1.0,500.0,,,,,,,,,,,
585,,html-keyboard-response,585,601209,0.0-3.1-244.1,,<div class = centerbox><div class = AX_text>A</div></div>,,test_cue,500.0,,test,1.0,500.0,AX,A,,,,,,,,,
586,,html-keyboard-response,586,604215,0.0-3.1-245.1,,<div class = centerbox><div class = fixation>+</div></div>,,test_inter-stimulus,3000.0,,test,1.0,3000.0,,,,,,,,,,,
587,,html-keyboard-response,587,605721,0.0-3.1-246.1,,<div class = centerbox><div class = AX_text>X</div></div>,,test_trial,1500.0,,test,1.0,1000.0,AX,,"['.', ',']",.,0,X,,,,,
588,,html-keyboard-response,588,606558,0.0-3.1-247.1,,<div class = centerbox><div class = fixation>+</div></div>,,test_ITI,831.5214873886916,,test,1.0,831.5214873886916,,,,,,,"{'min': 0, 'max': 5, 'mean': 0.5}",,,,
589,,call-function,589,606559,0.0-3.1-248.1,,,,,,,,,,,,,,,,,,,,
590,,html-keyboard-response,590,607062,0.0-3.1-249.1,,<div class = centerbox><div class = fixation>+</div></div>,,test_fixation,500.0,,test,1.0,500.0,,,,,,,,,,,
591,,html-keyboard-response,591,607565,0.0-3.1-250.1,,<div class = centerbox><div class = AX_text>A</div></div>,,test_cue,500.0,,test,1.0,500.0,AX,A,,,,,,,,,
592,,html-keyboard-response,592,610570,0.0-3.1-251.1,,<div class = centerbox><div class = fixation>+</div></div>,,test_inter-stimulus,3000.0,,test,1.0,3000.0,,,,,,,,,,,
593,,html-keyboard-response,593,612077,0.0-3.1-252.1,,<div class = centerbox><div class = AX_text>X</div></div>,,test_trial,1500.0,,test,1.0,1000.0,AX,,"['.', ',']",.,0,X,,,,,
594,,html-keyboard-response,594,612171,0.0-3.1-253.1,,<div class = centerbox><div class = fixation>+</div></div>,,test_ITI,89.6374786232264,,test,1.0,89.6374786232264,,,,,,,"{'min': 0, 'max': 5, 'mean': 0.5}",,,,
595,,call-function,595,612172,0.0-3.1-254.1,,,,,,,,,,,,,,,,,,,,
596,,html-keyboard-response,596,612675,0.0-3.1-255.1,,<div class = centerbox><div class = fixation>+</div></div>,,test_fixation,500.0,,test,1.0,500.0,,,,,,,,,,,
597,,html-keyboard-response,597,613179,0.0-3.1-256.1,,<div class = centerbox><div class = AX_text>A</div></div>,,test_cue,500.0,,test,1.0,500.0,AX,A,,,,,,,,,
598,,html-keyboard-response,598,616186,0.0-3.1-257.1,,<div class = centerbox><div class = fixation>+</div></div>,,test_inter-stimulus,3000.0,,test,1.0,3000.0,,,,,,,,,,,
599,,html-keyboard-response,599,617692,0.0-3.1-258.1,,<div class = centerbox><div class = AX_text>X</div></div>,,test_trial,1500.0,,test,1.0,1000.0,AX,,"['.', ',']",.,0,X,,,,,
600,,html-keyboard-response,600,618237,0.0-3.1-259.1,,<div class = centerbox><div class = fixation>+</div></div>,,test_ITI,542.9907858001626,,test,1.0,542.9907858001626,,,,,,,"{'min': 0, 'max': 5, 'mean': 0.5}",,,,
601,,call-function,601,618237,0.0-3.1-260.1,,,,,,,,,,,,,,,,,,,,
602,,html-keyboard-response,602,618741,0.0-3.1-261.1,,<div class = centerbox><div class = fixation>+</div></div>,,test_fixation,500.0,,test,1.0,500.0,,,,,,,,,,,
603,,html-keyboard-response,603,619245,0.0-3.1-262.1,,<div class = centerbox><div class = AX_text>V</div></div>,,test_cue,500.0,,test,1.0,500.0,BX,V,,,,,,,,,
604,,html-keyboard-response,604,622252,0.0-3.1-263.1,,<div class = centerbox><div class = fixation>+</div></div>,,test_inter-stimulus,3000.0,,test,1.0,3000.0,,,,,,,,,,,
605,,html-keyboard-response,605,623759,0.0-3.1-264.1,,<div class = centerbox><div class = AX_text>X</div></div>,,test_trial,1500.0,,test,1.0,1000.0,BX,,"['.', ',']",",",0,X,,,,,
606,,html-keyboard-response,606,624718,0.0-3.1-265.1,,<div class = centerbox><div class = fixation>+</div></div>,,test_ITI,953.0635295156645,,test,1.0,953.0635295156645,,,,,,,"{'min': 0, 'max': 5, 'mean': 0.5}",,,,
607,,call-function,607,624718,0.0-3.1-266.1,,,,,,,,,,,,,,,,,,,,
608,,html-keyboard-response,608,625224,0.0-3.1-267.1,,<div class = centerbox><div class = fixation>+</div></div>,,test_fixation,500.0,,test,1.0,500.0,,,,,,,,,,,
609,,html-keyboard-response,609,625729,0.0-3.1-268.1,,<div class = centerbox><div class = AX_text>A</div></div>,,test_cue,500.0,,test,1.0,500.0,AY,A,,,,,,,,,
610,,html-keyboard-response,610,628736,0.0-3.1-269.1,,<div class = centerbox><div class = fixation>+</div></div>,,test_inter-stimulus,3000.0,,test,1.0,3000.0,,,,,,,,,,,
611,,html-keyboard-response,611,630240,0.0-3.1-270.1,,<div class = centerbox><div class = AX_text>S</div></div>,,test_trial,1500.0,,test,1.0,1000.0,AY,,"['.', ',']",",",0,S,,,,,
612,,html-keyboard-response,612,630317,0.0-3.1-271.1,,<div class = centerbox><div class = fixation>+</div></div>,,test_ITI,74.41576432178668,,test,1.0,74.41576432178668,,,,,,,"{'min': 0, 'max': 5, 'mean': 0.5}",,,,
613,,call-function,613,630317,0.0-3.1-272.1,,,,,,,,,,,,,,,,,,,,
614,,html-keyboard-response,614,630822,0.0-3.1-273.1,,<div class = centerbox><div class = fixation>+</div></div>,,test_fixation,500.0,,test,1.0,500.0,,,,,,,,,,,
615,,html-keyboard-response,615,631326,0.0-3.1-274.1,,<div class = centerbox><div class = AX_text>T</div></div>,,test_cue,500.0,,test,1.0,500.0,BX,T,,,,,,,,,
616,,html-keyboard-response,616,634333,0.0-3.1-275.1,,<div class = centerbox><div class = fixation>+</div></div>,,test_inter-stimulus,3000.0,,test,1.0,3000.0,,,,,,,,,,,
617,,html-keyboard-response,617,635840,0.0-3.1-276.1,,<div class = centerbox><div class = AX_text>X</div></div>,,test_trial,1500.0,,test,1.0,1000.0,BX,,"['.', ',']",",",0,X,,,,,
618,,html-keyboard-response,618,636155,0.0-3.1-277.1,,<div class = centerbox><div class = fixation>+</div></div>,,test_ITI,312.43972699436085,,test,1.0,312.43972699436085,,,,,,,"{'min': 0, 'max': 5, 'mean': 0.5}",,,,
619,,call-function,619,636155,0.0-3.1-278.1,,,,,,,,,,,,,,,,,,,,
620,,html-keyboard-response,620,636656,0.0-3.1-279.1,,<div class = centerbox><div class = fixation>+</div></div>,,test_fixation,500.0,,test,1.0,500.0,,,,,,,,,,,
621,,html-keyboard-response,621,637158,0.0-3.1-280.1,,<div class = centerbox><div class = AX_text>R</div></div>,,test_cue,500.0,,test,1.0,500.0,BX,R,,,,,,,,,
622,,html-keyboard-response,622,640162,0.0-3.1-281.1,,<div class = centerbox><div class = fixation>+</div></div>,,test_inter-stimulus,3000.0,,test,1.0,3000.0,,,,,,,,,,,
