,success,trial_type,trial_index,time_elapsed,internal_node_id,rt,stimulus,response,trial_id,trial_duration,view_history,exp_stage,block_num,stimulus_duration,cue,stim_number,task,task_condition,cue_condition,condition,current_trial,correct_response,CTI,choices,correct_trial,ITIParams,current_question,current_key_answer,exp_id,attention_check_percent
0,True,fullscreen,0,4903,0.0-0.0,,,,,,,,,,,,,,,,,,,,,,,,,
1,,html-keyboard-response,1,5095,0.0-1.0-0.0,189.0,"<div class = centerbox><p class = center-block-text>
    
  <p class=""center-block-text"">
    Welcome! This experiment will take around 11 minutes.
  </p>
  <p class=""center-block-text"">
    To avoid technical issues, please keep the experiment tab (on Chrome or Firefox) active and fullscreen for the whole duration of each task.
  </p>
  <p class=""center-block-text""> Press <i>enter</i> to begin.</p>

    </p></div>",enter,instruction_feedback,180000.0,,,,,,,,,,,,,,,,,,,,
2,,instructions,2,8092,0.0-1.0-1.0,2996.0,,,instructions,,"[{'page_index': 0, 'viewing_time': 2494}, {'page_index': 1, 'viewing_time': 501}]",,,,,,,,,,,,,,,,,,,
3,,html-keyboard-response,3,9073,0.0-2.0-0.0,978.0,"<div class = bigbox><div class = picture_box><p class = block-text>
    <div class = centerbox><p class = center-block-text>Press <i>enter</i> to begin practice.</p></div>
    </font></p></div></div>",enter,practice_feedback,60000.0,,practice,0.0,,,,,,,,,,,,,,,,,
4,,call-function,4,9074,0.0-2.0-1.0,,,,set_stims,,,,,,,,,,,,,,,,,,,,,
5,,html-keyboard-response,5,9578,0.0-2.0-2.0,,<div class = upperbox><div class = fixation>+</div></div><div class = lowerbox><div class = fixation>+</div></div>,,practice_fixation,500.0,,practice,0.0,500.0,,,,,,,,,,,,,,,,
6,,html-keyboard-response,6,9732,0.0-2.0-3.0,,"
    <div class=""upperbox"">
      <div class=""center-text"" style=""color:white;"">Even-Odd</div>
    </div>
    <div class=""lowerbox"">
      <div class=""fixation"">+</div>
    </div>
  ",,practice_cue,150.0,,practice,0.0,150.0,Even-Odd,7.0,parity,na,na,task_na_cue_na,0.0,.,150.0,,,,,,,
7,,html-keyboard-response,7,11240,0.0-2.0-4.0,770.0,"
    <div class=""upperbox"">
      <div class=""center-text"" style=""color:white;"">Even-Odd</div>
    </div>
    <div class=""lowerbox"">
      <div class=""gng_number"">
        <div class=""cue-text""><img class = center src='/static/experiments/cued_task_switching_rdoc/images/7.png'></img></div>
      </div>
    </div>
  ",.,practice_trial,1500.0,,practice,0.0,1000.0,Even-Odd,7.0,parity,na,na,task_na_cue_na,0.0,.,150.0,"[',', '.']",1,,,,,
8,,html-keyboard-response,8,11744,0.0-2.0-5.0,,<div class = fb_box><div class = center-text><font size =20 >Correct!</font></div></div>,,practice_feedback,500.0,,practice,,,,,,,,,,,,,,,,,,
9,,html-keyboard-response,9,13486,0.0-2.0-6.0,,<div class = upperbox><div class = fixation>+</div></div><div class = lowerbox><div class = fixation>+</div></div>,,practice_ITI,1734.9465029748678,,practice,0.0,1734.9465029748678,,,,,,,,,,,,"{'min': 0, 'max': 5, 'mean': 0.5}",,,,
10,,call-function,10,13486,0.0-2.0-7.0,,,,set_stims,,,,,,,,,,,,,,,,,,,,,
11,,html-keyboard-response,11,13990,0.0-2.0-8.0,,<div class = upperbox><div class = fixation>+</div></div><div class = lowerbox><div class = fixation>+</div></div>,,practice_fixation,500.0,,practice,0.0,500.0,,,,,,,,,,,,,,,,
12,,html-keyboard-response,12,14148,0.0-2.0-9.0,,"
    <div class=""upperbox"">
      <div class=""center-text"" style=""color:white;"">Even-Odd</div>
    </div>
    <div class=""lowerbox"">
      <div class=""fixation"">+</div>
    </div>
  ",,practice_cue,150.0,,practice,0.0,150.0,Even-Odd,8.0,parity,stay,stay,task_stay_cue_stay,1.0,",",150.0,,,,,,,
13,,html-keyboard-response,13,15655,0.0-2.0-10.0,789.0,"
    <div class=""upperbox"">
      <div class=""center-text"" style=""color:white;"">Even-Odd</div>
    </div>
    <div class=""lowerbox"">
      <div class=""gng_number"">
        <div class=""cue-text""><img class = center src='/static/experiments/cued_task_switching_rdoc/images/8.png'></img></div>
      </div>
    </div>
  ",",",practice_trial,1500.0,,practice,0.0,1000.0,Even-Odd,8.0,parity,stay,stay,task_stay_cue_stay,1.0,",",150.0,"[',', '.']",1,,,,,
14,,html-keyboard-response,14,16159,0.0-2.0-11.0,,<div class = fb_box><div class = center-text><font size =20 >Correct!</font></div></div>,,practice_feedback,500.0,,practice,,,,,,,,,,,,,,,,,,
15,,html-keyboard-response,15,16695,0.0-2.0-12.0,,<div class = upperbox><div class = fixation>+</div></div><div class = lowerbox><div class = fixation>+</div></div>,,practice_ITI,529.6047102854886,,practice,0.0,529.6047102854886,,,,,,,,,,,,"{'min': 0, 'max': 5, 'mean': 0.5}",,,,
16,,call-function,16,16695,0.0-2.0-13.0,,,,set_stims,,,,,,,,,,,,,,,,,,,,,
17,,html-keyboard-response,17,17200,0.0-2.0-14.0,,<div class = upperbox><div class = fixation>+</div></div><div class = lowerbox><div class = fixation>+</div></div>,,practice_fixation,500.0,,practice,0.0,500.0,,,,,,,,,,,,,,,,
18,,html-keyboard-response,18,17357,0.0-2.0-15.0,,"
    <div class=""upperbox"">
      <div class=""center-text"" style=""color:white;"">Magnitude</div>
    </div>
    <div class=""lowerbox"">
      <div class=""fixation"">+</div>
    </div>
  ",,practice_cue,150.0,,practice,0.0,150.0,Magnitude,6.0,magnitude,switch,switch,task_switch_cue_switch,2.0,",",150.0,,,,,,,
19,,html-keyboard-response,19,18865,0.0-2.0-16.0,823.0,"
    <div class=""upperbox"">
      <div class=""center-text"" style=""color:white;"">Magnitude</div>
    </div>
    <div class=""lowerbox"">
      <div class=""gng_number"">
        <div class=""cue-text""><img class = center src='/static/experiments/cued_task_switching_rdoc/images/6.png'></img></div>
      </div>
    </div>
  ",",",practice_trial,1500.0,,practice,0.0,1000.0,Magnitude,6.0,magnitude,switch,switch,task_switch_cue_switch,2.0,",",150.0,"[',', '.']",1,,,,,
20,,html-keyboard-response,20,19369,0.0-2.0-17.0,,<div class = fb_box><div class = center-text><font size =20 >Correct!</font></div></div>,,practice_feedback,500.0,,practice,,,,,,,,,,,,,,,,,,
21,,html-keyboard-response,21,19507,0.0-2.0-18.0,,<div class = upperbox><div class = fixation>+</div></div><div class = lowerbox><div class = fixation>+</div></div>,,practice_ITI,136.60830354061977,,practice,0.0,136.60830354061977,,,,,,,,,,,,"{'min': 0, 'max': 5, 'mean': 0.5}",,,,
22,,call-function,22,19508,0.0-2.0-19.0,,,,set_stims,,,,,,,,,,,,,,,,,,,,,
23,,html-keyboard-response,23,20012,0.0-2.0-20.0,,<div class = upperbox><div class = fixation>+</div></div><div class = lowerbox><div class = fixation>+</div></div>,,practice_fixation,500.0,,practice,0.0,500.0,,,,,,,,,,,,,,,,
24,,html-keyboard-response,24,20169,0.0-2.0-21.0,,"
    <div class=""upperbox"">
      <div class=""center-text"" style=""color:white;"">High-Low</div>
    </div>
    <div class=""lowerbox"">
      <div class=""fixation"">+</div>
    </div>
  ",,practice_cue,150.0,,practice,0.0,150.0,High-Low,7.0,magnitude,stay,switch,task_stay_cue_switch,3.0,",",150.0,,,,,,,
25,,html-keyboard-response,25,21676,0.0-2.0-22.0,720.0,"
    <div class=""upperbox"">
      <div class=""center-text"" style=""color:white;"">High-Low</div>
    </div>
    <div class=""lowerbox"">
      <div class=""gng_number"">
        <div class=""cue-text""><img class = center src='/static/experiments/cued_task_switching_rdoc/images/7.png'></img></div>
      </div>
    </div>
  ",.,practice_trial,1500.0,,practice,0.0,1000.0,High-Low,7.0,magnitude,stay,switch,task_stay_cue_switch,3.0,",",150.0,"[',', '.']",0,,,,,
26,,html-keyboard-response,26,22181,0.0-2.0-23.0,,<div class = fb_box><div class = center-text><font size =20 >Incorrect</font></div></div>,,practice_feedback,500.0,,practice,,,,,,,,,,,,,,,,,,
27,,html-keyboard-response,27,22727,0.0-2.0-24.0,,<div class = upperbox><div class = fixation>+</div></div><div class = lowerbox><div class = fixation>+</div></div>,,practice_ITI,540.8068983958319,,practice,0.0,540.8068983958319,,,,,,,,,,,,"{'min': 0, 'max': 5, 'mean': 0.5}",,,,
28,,call-function,28,22728,0.0-2.0-25.0,,,,set_stims,,,,,,,,,,,,,,,,,,,,,
29,,html-keyboard-response,29,23232,0.0-2.0-26.0,,<div class = upperbox><div class = fixation>+</div></div><div class = lowerbox><div class = fixation>+</div></div>,,practice_fixation,500.0,,practice,0.0,500.0,,,,,,,,,,,,,,,,
30,,html-keyboard-response,30,23389,0.0-2.0-27.0,,"
    <div class=""upperbox"">
      <div class=""center-text"" style=""color:white;"">Even-Odd</div>
    </div>
    <div class=""lowerbox"">
      <div class=""fixation"">+</div>
    </div>
  ",,practice_cue,150.0,,practice,0.0,150.0,Even-Odd,1.0,parity,switch,switch,task_switch_cue_switch,4.0,.,150.0,,,,,,,
31,,html-keyboard-response,31,24891,0.0-2.0-28.0,815.0,"
    <div class=""upperbox"">
      <div class=""center-text"" style=""color:white;"">Even-Odd</div>
    </div>
    <div class=""lowerbox"">
      <div class=""gng_number"">
        <div class=""cue-text""><img class = center src='/static/experiments/cued_task_switching_rdoc/images/1.png'></img></div>
      </div>
    </div>
  ",.,practice_trial,1500.0,,practice,0.0,1000.0,Even-Odd,1.0,parity,switch,switch,task_switch_cue_switch,4.0,.,150.0,"[',', '.']",1,,,,,
32,,html-keyboard-response,32,25396,0.0-2.0-29.0,,<div class = fb_box><div class = center-text><font size =20 >Correct!</font></div></div>,,practice_feedback,500.0,,practice,,,,,,,,,,,,,,,,,,
33,,html-keyboard-response,33,25756,0.0-2.0-30.0,,<div class = upperbox><div class = fixation>+</div></div><div class = lowerbox><div class = fixation>+</div></div>,,practice_ITI,353.7587122413279,,practice,0.0,353.7587122413279,,,,,,,,,,,,"{'min': 0, 'max': 5, 'mean': 0.5}",,,,
34,,html-keyboard-response,34,26457,0.0-3.0-0.0,699.0,"<div class = bigbox><div class = picture_box><p class = block-text>
    
        <div class=""centerbox"">
          <p class=""center-block-text"">We will now start the test portion.</p>
          <p class=""block-text"">Keep your <b>index finger</b> on the <b>comma key (,)</b> and your <b>middle finger</b> on the <b>period key (.)</b></p>
          <p class=""block-text"">Press <i>enter</i> to continue.</p>
        </div>
      
    </font></p></div></div>",enter,test_feedback,60000.0,,test,0.0,,,,,,,,,,,,,,,,,
35,,html-keyboard-response,35,27328,0.0-3.0-1.0-0.0,869.0,,m,test_attention_check,,,test,0.0,,,,,,,,,,,,True,,<p class='block-text'>Press the M key</p> <div class=block-text>This screen will advance automatically in 1 minute.</div>,77.0,,
36,,call-function,36,27328,0.0-3.0-2.0,,,,set_stims,,,,,,,,,,,,,,,,,,,,,
37,,html-keyboard-response,37,27829,0.0-3.0-3.0,,<div class = upperbox><div class = fixation>+</div></div><div class = lowerbox><div class = fixation>+</div></div>,,test_fixation,500.0,,test,0.0,500.0,,,,,,,,,,,,,,,,
38,,html-keyboard-response,38,27981,0.0-3.0-4.0,,"
    <div class=""upperbox"">
      <div class=""center-text"" style=""color:white;"">Even-Odd</div>
    </div>
    <div class=""lowerbox"">
      <div class=""fixation"">+</div>
    </div>
  ",,test_cue,150.0,,test,0.0,150.0,Even-Odd,3.0,parity,na,na,task_na_cue_na,0.0,.,150.0,,,,,,,
39,,html-keyboard-response,39,29486,0.0-3.0-5.0,693.0,"
    <div class=""upperbox"">
      <div class=""center-text"" style=""color:white;"">Even-Odd</div>
    </div>
    <div class=""lowerbox"">
      <div class=""gng_number"">
        <div class=""cue-text""><img class = center src='/static/experiments/cued_task_switching_rdoc/images/3.png'></img></div>
      </div>
    </div>
  ",.,test_trial,1500.0,,test,0.0,1000.0,Even-Odd,3.0,parity,na,na,task_na_cue_na,0.0,.,150.0,"[',', '.']",1,,,,,
40,,html-keyboard-response,40,30629,0.0-3.0-6.0,,<div class = upperbox><div class = fixation>+</div></div><div class = lowerbox><div class = fixation>+</div></div>,,test_ITI,1141.3358665762464,,test,0.0,1141.3358665762464,,,,,,,,,,,,"{'min': 0, 'max': 5, 'mean': 0.5}",,,,
41,,call-function,41,30630,0.0-3.0-7.0,,,,set_stims,,,,,,,,,,,,,,,,,,,,,
42,,html-keyboard-response,42,31133,0.0-3.0-8.0,,<div class = upperbox><div class = fixation>+</div></div><div class = lowerbox><div class = fixation>+</div></div>,,test_fixation,500.0,,test,0.0,500.0,,,,,,,,,,,,,,,,
43,,html-keyboard-response,43,31287,0.0-3.0-9.0,,"
    <div class=""upperbox"">
      <div class=""center-text"" style=""color:white;"">Magnitude</div>
    </div>
    <div class=""lowerbox"">
      <div class=""fixation"">+</div>
    </div>
  ",,test_cue,150.0,,test,0.0,150.0,Magnitude,4.0,magnitude,switch,switch,task_switch_cue_switch,1.0,.,150.0,,,,,,,
44,,html-keyboard-response,44,32794,0.0-3.0-10.0,714.0,"
    <div class=""upperbox"">
      <div class=""center-text"" style=""color:white;"">Magnitude</div>
    </div>
    <div class=""lowerbox"">
      <div class=""gng_number"">
        <div class=""cue-text""><img class = center src='/static/experiments/cued_task_switching_rdoc/images/4.png'></img></div>
      </div>
    </div>
  ",",",test_trial,1500.0,,test,0.0,1000.0,Magnitude,4.0,magnitude,switch,switch,task_switch_cue_switch,1.0,.,150.0,"[',', '.']",0,,,,,
45,,html-keyboard-response,45,32824,0.0-3.0-11.0,,<div class = upperbox><div class = fixation>+</div></div><div class = lowerbox><div class = fixation>+</div></div>,,test_ITI,28.10340848729112,,test,0.0,28.10340848729112,,,,,,,,,,,,"{'min': 0, 'max': 5, 'mean': 0.5}",,,,
46,,call-function,46,32824,0.0-3.0-12.0,,,,set_stims,,,,,,,,,,,,,,,,,,,,,
47,,html-keyboard-response,47,33329,0.0-3.0-13.0,,<div class = upperbox><div class = fixation>+</div></div><div class = lowerbox><div class = fixation>+</div></div>,,test_fixation,500.0,,test,0.0,500.0,,,,,,,,,,,,,,,,
48,,html-keyboard-response,48,33485,0.0-3.0-14.0,,"
    <div class=""upperbox"">
      <div class=""center-text"" style=""color:white;"">Magnitude</div>
    </div>
    <div class=""lowerbox"">
      <div class=""fixation"">+</div>
    </div>
  ",,test_cue,150.0,,test,0.0,150.0,Magnitude,6.0,magnitude,stay,stay,task_stay_cue_stay,2.0,",",150.0,,,,,,,
49,,html-keyboard-response,49,34989,0.0-3.0-15.0,882.0,"
    <div class=""upperbox"">
      <div class=""center-text"" style=""color:white;"">Magnitude</div>
    </div>
    <div class=""lowerbox"">
      <div class=""gng_number"">
        <div class=""cue-text""><img class = center src='/static/experiments/cued_task_switching_rdoc/images/6.png'></img></div>
      </div>
    </div>
  ",.,test_trial,1500.0,,test,0.0,1000.0,Magnitude,6.0,magnitude,stay,stay,task_stay_cue_stay,2.0,",",150.0,"[',', '.']",0,,,,,
50,,html-keyboard-response,50,35022,0.0-3.0-16.0,,<div class = upperbox><div class = fixation>+</div></div><div class = lowerbox><div class = fixation>+</div></div>,,test_ITI,29.770023159069332,,test,0.0,29.770023159069332,,,,,,,,,,,,"{'min': 0, 'max': 5, 'mean': 0.5}",,,,
51,,call-function,51,35023,0.0-3.0-17.0,,,,set_stims,,,,,,,,,,,,,,,,,,,,,
52,,html-keyboard-response,52,35525,0.0-3.0-18.0,,<div class = upperbox><div class = fixation>+</div></div><div class = lowerbox><div class = fixation>+</div></div>,,test_fixation,500.0,,test,0.0,500.0,,,,,,,,,,,,,,,,
53,,html-keyboard-response,53,35681,0.0-3.0-19.0,,"
    <div class=""upperbox"">
      <div class=""center-text"" style=""color:white;"">Even-Odd</div>
    </div>
    <div class=""lowerbox"">
      <div class=""fixation"">+</div>
    </div>
  ",,test_cue,150.0,,test,0.0,150.0,Even-Odd,1.0,parity,switch,switch,task_switch_cue_switch,3.0,.,150.0,,,,,,,
54,,html-keyboard-response,54,37188,0.0-3.0-20.0,,"
    <div class=""upperbox"">
      <div class=""center-text"" style=""color:white;"">Even-Odd</div>
    </div>
    <div class=""lowerbox"">
      <div class=""gng_number"">
        <div class=""cue-text""><img class = center src='/static/experiments/cued_task_switching_rdoc/images/1.png'></img></div>
      </div>
    </div>
  ",,test_trial,1500.0,,test,0.0,1000.0,Even-Odd,1.0,parity,switch,switch,task_switch_cue_switch,3.0,.,150.0,"[',', '.']",0,,,,,
55,,html-keyboard-response,55,37782,0.0-3.0-21.0,,<div class = upperbox><div class = fixation>+</div></div><div class = lowerbox><div class = fixation>+</div></div>,,test_ITI,587.0638633991415,,test,0.0,587.0638633991415,,,,,,,,,,,,"{'min': 0, 'max': 5, 'mean': 0.5}",,,,
56,,call-function,56,37783,0.0-3.0-22.0,,,,set_stims,,,,,,,,,,,,,,,,,,,,,
57,,html-keyboard-response,57,38284,0.0-3.0-23.0,,<div class = upperbox><div class = fixation>+</div></div><div class = lowerbox><div class = fixation>+</div></div>,,test_fixation,500.0,,test,0.0,500.0,,,,,,,,,,,,,,,,
58,,html-keyboard-response,58,38437,0.0-3.0-24.0,,"
    <div class=""upperbox"">
      <div class=""center-text"" style=""color:white;"">Magnitude</div>
    </div>
    <div class=""lowerbox"">
      <div class=""fixation"">+</div>
    </div>
  ",,test_cue,150.0,,test,0.0,150.0,Magnitude,4.0,magnitude,switch,switch,task_switch_cue_switch,4.0,.,150.0,,,,,,,
59,,html-keyboard-response,59,39944,0.0-3.0-25.0,,"
    <div class=""upperbox"">
      <div class=""center-text"" style=""color:white;"">Magnitude</div>
    </div>
    <div class=""lowerbox"">
      <div class=""gng_number"">
        <div class=""cue-text""><img class = center src='/static/experiments/cued_task_switching_rdoc/images/4.png'></img></div>
      </div>
    </div>
  ",,test_trial,1500.0,,test,0.0,1000.0,Magnitude,4.0,magnitude,switch,switch,task_switch_cue_switch,4.0,.,150.0,"[',', '.']",0,,,,,
60,,html-keyboard-response,60,40790,0.0-3.0-26.0,,<div class = upperbox><div class = fixation>+</div></div><div class = lowerbox><div class = fixation>+</div></div>,,test_ITI,843.074158544185,,test,0.0,843.074158544185,,,,,,,,,,,,"{'min': 0, 'max': 5, 'mean': 0.5}",,,,
61,,call-function,61,40790,0.0-3.0-27.0,,,,set_stims,,,,,,,,,,,,,,,,,,,,,
62,,html-keyboard-response,62,41293,0.0-3.0-28.0,,<div class = upperbox><div class = fixation>+</div></div><div class = lowerbox><div class = fixation>+</div></div>,,test_fixation,500.0,,test,0.0,500.0,,,,,,,,,,,,,,,,
63,,html-keyboard-response,63,41449,0.0-3.0-29.0,,"
    <div class=""upperbox"">
      <div class=""center-text"" style=""color:white;"">High-Low</div>
    </div>
    <div class=""lowerbox"">
      <div class=""fixation"">+</div>
    </div>
  ",,test_cue,150.0,,test,0.0,150.0,High-Low,3.0,magnitude,stay,switch,task_stay_cue_switch,5.0,.,150.0,,,,,,,
64,,html-keyboard-response,64,42957,0.0-3.0-30.0,,"
    <div class=""upperbox"">
      <div class=""center-text"" style=""color:white;"">High-Low</div>
    </div>
    <div class=""lowerbox"">
      <div class=""gng_number"">
        <div class=""cue-text""><img class = center src='/static/experiments/cued_task_switching_rdoc/images/3.png'></img></div>
      </div>
    </div>
  ",,test_trial,1500.0,,test,0.0,1000.0,High-Low,3.0,magnitude,stay,switch,task_stay_cue_switch,5.0,.,150.0,"[',', '.']",0,,,,,
65,,html-keyboard-response,65,43285,0.0-3.0-31.0,,<div class = upperbox><div class = fixation>+</div></div><div class = lowerbox><div class = fixation>+</div></div>,,test_ITI,326.68655689162034,,test,0.0,326.68655689162034,,,,,,,,,,,,"{'min': 0, 'max': 5, 'mean': 0.5}",,,,
66,,call-function,66,43285,0.0-3.0-32.0,,,,set_stims,,,,,,,,,,,,,,,,,,,,,
67,,html-keyboard-response,67,43788,0.0-3.0-33.0,,<div class = upperbox><div class = fixation>+</div></div><div class = lowerbox><div class = fixation>+</div></div>,,test_fixation,500.0,,test,0.0,500.0,,,,,,,,,,,,,,,,
68,,html-keyboard-response,68,43939,0.0-3.0-34.0,,"
    <div class=""upperbox"">
      <div class=""center-text"" style=""color:white;"">Magnitude</div>
    </div>
    <div class=""lowerbox"">
      <div class=""fixation"">+</div>
    </div>
  ",,test_cue,150.0,,test,0.0,150.0,Magnitude,9.0,magnitude,stay,switch,task_stay_cue_switch,6.0,",",150.0,,,,,,,
69,,html-keyboard-response,69,45446,0.0-3.0-35.0,,"
    <div class=""upperbox"">
      <div class=""center-text"" style=""color:white;"">Magnitude</div>
    </div>
    <div class=""lowerbox"">
      <div class=""gng_number"">
        <div class=""cue-text""><img class = center src='/static/experiments/cued_task_switching_rdoc/images/9.png'></img></div>
      </div>
    </div>
  ",,test_trial,1500.0,,test,0.0,1000.0,Magnitude,9.0,magnitude,stay,switch,task_stay_cue_switch,6.0,",",150.0,"[',', '.']",0,,,,,
70,,html-keyboard-response,70,46149,0.0-3.0-36.0,,<div class = upperbox><div class = fixation>+</div></div><div class = lowerbox><div class = fixation>+</div></div>,,test_ITI,698.422605573917,,test,0.0,698.422605573917,,,,,,,,,,,,"{'min': 0, 'max': 5, 'mean': 0.5}",,,,
71,,call-function,71,46149,0.0-3.0-37.0,,,,set_stims,,,,,,,,,,,,,,,,,,,,,
72,,html-keyboard-response,72,46653,0.0-3.0-38.0,,<div class = upperbox><div class = fixation>+</div></div><div class = lowerbox><div class = fixation>+</div></div>,,test_fixation,500.0,,test,0.0,500.0,,,,,,,,,,,,,,,,
73,,html-keyboard-response,73,46808,0.0-3.0-39.0,,"
    <div class=""upperbox"">
      <div class=""center-text"" style=""color:white;"">Even-Odd</div>
    </div>
    <div class=""lowerbox"">
      <div class=""fixation"">+</div>
    </div>
  ",,test_cue,150.0,,test,0.0,150.0,Even-Odd,1.0,parity,switch,switch,task_switch_cue_switch,7.0,.,150.0,,,,,,,
74,,html-keyboard-response,74,48315,0.0-3.0-40.0,,"
    <div class=""upperbox"">
      <div class=""center-text"" style=""color:white;"">Even-Odd</div>
    </div>
    <div class=""lowerbox"">
      <div class=""gng_number"">
        <div class=""cue-text""><img class = center src='/static/experiments/cued_task_switching_rdoc/images/1.png'></img></div>
      </div>
    </div>
  ",,test_trial,1500.0,,test,0.0,1000.0,Even-Odd,1.0,parity,switch,switch,task_switch_cue_switch,7.0,.,150.0,"[',', '.']",0,,,,,
75,,html-keyboard-response,75,48321,0.0-3.0-41.0,,<div class = upperbox><div class = fixation>+</div></div><div class = lowerbox><div class = fixation>+</div></div>,,test_ITI,4.7180744240806325,,test,0.0,4.7180744240806325,,,,,,,,,,,,"{'min': 0, 'max': 5, 'mean': 0.5}",,,,
76,,call-function,76,48321,0.0-3.0-42.0,,,,set_stims,,,,,,,,,,,,,,,,,,,,,
77,,html-keyboard-response,77,48827,0.0-3.0-43.0,,<div class = upperbox><div class = fixation>+</div></div><div class = lowerbox><div class = fixation>+</div></div>,,test_fixation,500.0,,test,0.0,500.0,,,,,,,,,,,,,,,,
78,,html-keyboard-response,78,48984,0.0-3.0-44.0,,"
    <div class=""upperbox"">
      <div class=""center-text"" style=""color:white;"">Parity</div>
    </div>
    <div class=""lowerbox"">
      <div class=""fixation"">+</div>
    </div>
  ",,test_cue,150.0,,test,0.0,150.0,Parity,4.0,parity,stay,switch,task_stay_cue_switch,8.0,",",150.0,,,,,,,
79,,html-keyboard-response,79,50488,0.0-3.0-45.0,,"
    <div class=""upperbox"">
      <div class=""center-text"" style=""color:white;"">Parity</div>
    </div>
    <div class=""lowerbox"">
      <div class=""gng_number"">
        <div class=""cue-text""><img class = center src='/static/experiments/cued_task_switching_rdoc/images/4.png'></img></div>
      </div>
    </div>
  ",,test_trial,1500.0,,test,0.0,1000.0,Parity,4.0,parity,stay,switch,task_stay_cue_switch,8.0,",",150.0,"[',', '.']",0,,,,,
80,,html-keyboard-response,80,51293,0.0-3.0-46.0,,<div class = upperbox><div class = fixation>+</div></div><div class = lowerbox><div class = fixation>+</div></div>,,test_ITI,798.8389240378937,,test,0.0,798.8389240378937,,,,,,,,,,,,"{'min': 0, 'max': 5, 'mean': 0.5}",,,,
81,,call-function,81,51294,0.0-3.0-47.0,,,,set_stims,,,,,,,,,,,,,,,,,,,,,
82,,html-keyboard-response,82,51799,0.0-3.0-48.0,,<div class = upperbox><div class = fixation>+</div></div><div class = lowerbox><div class = fixation>+</div></div>,,test_fixation,500.0,,test,0.0,500.0,,,,,,,,,,,,,,,,
83,,html-keyboard-response,83,51955,0.0-3.0-49.0,,"
    <div class=""upperbox"">
      <div class=""center-text"" style=""color:white;"">High-Low</div>
    </div>
    <div class=""lowerbox"">
      <div class=""fixation"">+</div>
    </div>
  ",,test_cue,150.0,,test,0.0,150.0,High-Low,2.0,magnitude,switch,switch,task_switch_cue_switch,9.0,.,150.0,,,,,,,
84,,html-keyboard-response,84,53458,0.0-3.0-50.0,,"
    <div class=""upperbox"">
      <div class=""center-text"" style=""color:white;"">High-Low</div>
    </div>
    <div class=""lowerbox"">
      <div class=""gng_number"">
        <div class=""cue-text""><img class = center src='/static/experiments/cued_task_switching_rdoc/images/2.png'></img></div>
      </div>
    </div>
  ",,test_trial,1500.0,,test,0.0,1000.0,High-Low,2.0,magnitude,switch,switch,task_switch_cue_switch,9.0,.,150.0,"[',', '.']",0,,,,,
85,,html-keyboard-response,85,53673,0.0-3.0-51.0,,<div class = upperbox><div class = fixation>+</div></div><div class = lowerbox><div class = fixation>+</div></div>,,test_ITI,208.2442952567149,,test,0.0,208.2442952567149,,,,,,,,,,,,"{'min': 0, 'max': 5, 'mean': 0.5}",,,,
86,,call-function,86,53673,0.0-3.0-52.0,,,,set_stims,,,,,,,,,,,,,,,,,,,,,
87,,html-keyboard-response,87,54176,0.0-3.0-53.0,,<div class = upperbox><div class = fixation>+</div></div><div class = lowerbox><div class = fixation>+</div></div>,,test_fixation,500.0,,test,0.0,500.0,,,,,,,,,,,,,,,,
88,,html-keyboard-response,88,54328,0.0-3.0-54.0,,"
    <div class=""upperbox"">
      <div class=""center-text"" style=""color:white;"">Even-Odd</div>
    </div>
    <div class=""lowerbox"">
      <div class=""fixation"">+</div>
    </div>
  ",,test_cue,150.0,,test,0.0,150.0,Even-Odd,6.0,parity,switch,switch,task_switch_cue_switch,10.0,",",150.0,,,,,,,
89,,html-keyboard-response,89,55835,0.0-3.0-55.0,,"
    <div class=""upperbox"">
      <div class=""center-text"" style=""color:white;"">Even-Odd</div>
    </div>
    <div class=""lowerbox"">
      <div class=""gng_number"">
        <div class=""cue-text""><img class = center src='/static/experiments/cued_task_switching_rdoc/images/6.png'></img></div>
      </div>
    </div>
  ",,test_trial,1500.0,,test,0.0,1000.0,Even-Odd,6.0,parity,switch,switch,task_switch_cue_switch,10.0,",",150.0,"[',', '.']",0,,,,,
90,,html-keyboard-response,90,55865,0.0-3.0-56.0,,<div class = upperbox><div class = fixation>+</div></div><div class = lowerbox><div class = fixation>+</div></div>,,test_ITI,28.24057932552465,,test,0.0,28.24057932552465,,,,,,,,,,,,"{'min': 0, 'max': 5, 'mean': 0.5}",,,,
91,,call-function,91,55866,0.0-3.0-57.0,,,,set_stims,,,,,,,,,,,,,,,,,,,,,
92,,html-keyboard-response,92,56371,0.0-3.0-58.0,,<div class = upperbox><div class = fixation>+</div></div><div class = lowerbox><div class = fixation>+</div></div>,,test_fixation,500.0,,test,0.0,500.0,,,,,,,,,,,,,,,,
93,,html-keyboard-response,93,56528,0.0-3.0-59.0,,"
    <div class=""upperbox"">
      <div class=""center-text"" style=""color:white;"">Even-Odd</div>
    </div>
    <div class=""lowerbox"">
      <div class=""fixation"">+</div>
    </div>
  ",,test_cue,150.0,,test,0.0,150.0,Even-Odd,3.0,parity,stay,stay,task_stay_cue_stay,11.0,.,150.0,,,,,,,
94,,html-keyboard-response,94,58035,0.0-3.0-60.0,,"
    <div class=""upperbox"">
      <div class=""center-text"" style=""color:white;"">Even-Odd</div>
    </div>
    <div class=""lowerbox"">
      <div class=""gng_number"">
        <div class=""cue-text""><img class = center src='/static/experiments/cued_task_switching_rdoc/images/3.png'></img></div>
      </div>
    </div>
  ",,test_trial,1500.0,,test,0.0,1000.0,Even-Odd,3.0,parity,stay,stay,task_stay_cue_stay,11.0,.,150.0,"[',', '.']",0,,,,,
95,,html-keyboard-response,95,59031,0.0-3.0-61.0,,<div class = upperbox><div class = fixation>+</div></div><div class = lowerbox><div class = fixation>+</div></div>,,test_ITI,989.0987835732763,,test,0.0,989.0987835732763,,,,,,,,,,,,"{'min': 0, 'max': 5, 'mean': 0.5}",,,,
96,,call-function,96,59031,0.0-3.0-62.0,,,,set_stims,,,,,,,,,,,,,,,,,,,,,
97,,html-keyboard-response,97,59534,0.0-3.0-63.0,,<div class = upperbox><div class = fixation>+</div></div><div class = lowerbox><div class = fixation>+</div></div>,,test_fixation,500.0,,test,0.0,500.0,,,,,,,,,,,,,,,,
98,,html-keyboard-response,98,59688,0.0-3.0-64.0,,"
    <div class=""upperbox"">
      <div class=""center-text"" style=""color:white;"">Even-Odd</div>
    </div>
    <div class=""lowerbox"">
      <div class=""fixation"">+</div>
    </div>
  ",,test_cue,150.0,,test,0.0,150.0,Even-Odd,7.0,parity,stay,stay,task_stay_cue_stay,12.0,.,150.0,,,,,,,
99,,html-keyboard-response,99,61191,0.0-3.0-65.0,,"
    <div class=""upperbox"">
      <div class=""center-text"" style=""color:white;"">Even-Odd</div>
    </div>
    <div class=""lowerbox"">
      <div class=""gng_number"">
        <div class=""cue-text""><img class = center src='/static/experiments/cued_task_switching_rdoc/images/7.png'></img></div>
      </div>
    </div>
  ",,test_trial,1500.0,,test,0.0,1000.0,Even-Odd,7.0,parity,stay,stay,task_stay_cue_stay,12.0,.,150.0,"[',', '.']",0,,,,,
100,,html-keyboard-response,100,61425,0.0-3.0-66.0,,<div class = upperbox><div class = fixation>+</div></div><div class = lowerbox><div class = fixation>+</div></div>,,test_ITI,230.0980713435375,,test,0.0,230.0980713435375,,,,,,,,,,,,"{'min': 0, 'max': 5, 'mean': 0.5}",,,,
101,,call-function,101,61426,0.0-3.0-67.0,,,,set_stims,,,,,,,,,,,,,,,,,,,,,
102,,html-keyboard-response,102,61928,0.0-3.0-68.0,,<div class = upperbox><div class = fixation>+</div></div><div class = lowerbox><div class = fixation>+</div></div>,,test_fixation,500.0,,test,0.0,500.0,,,,,,,,,,,,,,,,
103,,html-keyboard-response,103,62085,0.0-3.0-69.0,,"
    <div class=""upperbox"">
      <div class=""center-text"" style=""color:white;"">Parity</div>
    </div>
    <div class=""lowerbox"">
      <div class=""fixation"">+</div>
    </div>
  ",,test_cue,150.0,,test,0.0,150.0,Parity,3.0,parity,stay,switch,task_stay_cue_switch,13.0,.,150.0,,,,,,,
104,,html-keyboard-response,104,63588,0.0-3.0-70.0,,"
    <div class=""upperbox"">
      <div class=""center-text"" style=""color:white;"">Parity</div>
    </div>
    <div class=""lowerbox"">
      <div class=""gng_number"">
        <div class=""cue-text""><img class = center src='/static/experiments/cued_task_switching_rdoc/images/3.png'></img></div>
      </div>
    </div>
  ",,test_trial,1500.0,,test,0.0,1000.0,Parity,3.0,parity,stay,switch,task_stay_cue_switch,13.0,.,150.0,"[',', '.']",0,,,,,
105,,html-keyboard-response,105,63706,0.0-3.0-71.0,,<div class = upperbox><div class = fixation>+</div></div><div class = lowerbox><div class = fixation>+</div></div>,,test_ITI,116.7752062991702,,test,0.0,116.7752062991702,,,,,,,,,,,,"{'min': 0, 'max': 5, 'mean': 0.5}",,,,
106,,call-function,106,63707,0.0-3.0-72.0,,,,set_stims,,,,,,,,,,,,,,,,,,,,,
107,,html-keyboard-response,107,64210,0.0-3.0-73.0,,<div class = upperbox><div class = fixation>+</div></div><div class = lowerbox><div class = fixation>+</div></div>,,test_fixation,500.0,,test,0.0,500.0,,,,,,,,,,,,,,,,
108,,html-keyboard-response,108,64365,0.0-3.0-74.0,,"
    <div class=""upperbox"">
      <div class=""center-text"" style=""color:white;"">Parity</div>
    </div>
    <div class=""lowerbox"">
      <div class=""fixation"">+</div>
    </div>
  ",,test_cue,150.0,,test,0.0,150.0,Parity,1.0,parity,stay,stay,task_stay_cue_stay,14.0,.,150.0,,,,,,,
109,,html-keyboard-response,109,65872,0.0-3.0-75.0,,"
    <div class=""upperbox"">
      <div class=""center-text"" style=""color:white;"">Parity</div>
    </div>
    <div class=""lowerbox"">
      <div class=""gng_number"">
        <div class=""cue-text""><img class = center src='/static/experiments/cued_task_switching_rdoc/images/1.png'></img></div>
      </div>
    </div>
  ",,test_trial,1500.0,,test,0.0,1000.0,Parity,1.0,parity,stay,stay,task_stay_cue_stay,14.0,.,150.0,"[',', '.']",0,,,,,
110,,html-keyboard-response,110,67210,0.0-3.0-76.0,,<div class = upperbox><div class = fixation>+</div></div><div class = lowerbox><div class = fixation>+</div></div>,,test_ITI,1332.0559105118762,,test,0.0,1332.0559105118762,,,,,,,,,,,,"{'min': 0, 'max': 5, 'mean': 0.5}",,,,
111,,call-function,111,67211,0.0-3.0-77.0,,,,set_stims,,,,,,,,,,,,,,,,,,,,,
112,,html-keyboard-response,112,67716,0.0-3.0-78.0,,<div class = upperbox><div class = fixation>+</div></div><div class = lowerbox><div class = fixation>+</div></div>,,test_fixation,500.0,,test,0.0,500.0,,,,,,,,,,,,,,,,
113,,html-keyboard-response,113,67873,0.0-3.0-79.0,,"
    <div class=""upperbox"">
      <div class=""center-text"" style=""color:white;"">High-Low</div>
    </div>
    <div class=""lowerbox"">
      <div class=""fixation"">+</div>
    </div>
  ",,test_cue,150.0,,test,0.0,150.0,High-Low,9.0,magnitude,switch,switch,task_switch_cue_switch,15.0,",",150.0,,,,,,,
114,,html-keyboard-response,114,69380,0.0-3.0-80.0,,"
    <div class=""upperbox"">
      <div class=""center-text"" style=""color:white;"">High-Low</div>
    </div>
    <div class=""lowerbox"">
      <div class=""gng_number"">
        <div class=""cue-text""><img class = center src='/static/experiments/cued_task_switching_rdoc/images/9.png'></img></div>
      </div>
    </div>
  ",,test_trial,1500.0,,test,0.0,1000.0,High-Low,9.0,magnitude,switch,switch,task_switch_cue_switch,15.0,",",150.0,"[',', '.']",0,,,,,
115,,html-keyboard-response,115,69478,0.0-3.0-81.0,,<div class = upperbox><div class = fixation>+</div></div><div class = lowerbox><div class = fixation>+</div></div>,,test_ITI,92.5517666962506,,test,0.0,92.5517666962506,,,,,,,,,,,,"{'min': 0, 'max': 5, 'mean': 0.5}",,,,
116,,call-function,116,69479,0.0-3.0-82.0,,,,set_stims,,,,,,,,,,,,,,,,,,,,,
117,,html-keyboard-response,117,69984,0.0-3.0-83.0,,<div class = upperbox><div class = fixation>+</div></div><div class = lowerbox><div class = fixation>+</div></div>,,test_fixation,500.0,,test,0.0,500.0,,,,,,,,,,,,,,,,
118,,html-keyboard-response,118,70141,0.0-3.0-84.0,,"
    <div class=""upperbox"">
      <div class=""center-text"" style=""color:white;"">Parity</div>
    </div>
    <div class=""lowerbox"">
      <div class=""fixation"">+</div>
    </div>
  ",,test_cue,150.0,,test,0.0,150.0,Parity,2.0,parity,switch,switch,task_switch_cue_switch,16.0,",",150.0,,,,,,,
119,,html-keyboard-response,119,71649,0.0-3.0-85.0,,"
    <div class=""upperbox"">
      <div class=""center-text"" style=""color:white;"">Parity</div>
    </div>
    <div class=""lowerbox"">
      <div class=""gng_number"">
        <div class=""cue-text""><img class = center src='/static/experiments/cued_task_switching_rdoc/images/2.png'></img></div>
      </div>
    </div>
  ",,test_trial,1500.0,,test,0.0,1000.0,Parity,2.0,parity,switch,switch,task_switch_cue_switch,16.0,",",150.0,"[',', '.']",0,,,,,
120,,html-keyboard-response,120,71907,0.0-3.0-86.0,,<div class = upperbox><div class = fixation>+</div></div><div class = lowerbox><div class = fixation>+</div></div>,,test_ITI,251.3574955863686,,test,0.0,251.3574955863686,,,,,,,,,,,,"{'min': 0, 'max': 5, 'mean': 0.5}",,,,
121,,call-function,121,71907,0.0-3.0-87.0,,,,set_stims,,,,,,,,,,,,,,,,,,,,,
122,,html-keyboard-response,122,72413,0.0-3.0-88.0,,<div class = upperbox><div class = fixation>+</div></div><div class = lowerbox><div class = fixation>+</div></div>,,test_fixation,500.0,,test,0.0,500.0,,,,,,,,,,,,,,,,
123,,html-keyboard-response,123,72569,0.0-3.0-89.0,,"
    <div class=""upperbox"">
      <div class=""center-text"" style=""color:white;"">Parity</div>
    </div>
    <div class=""lowerbox"">
      <div class=""fixation"">+</div>
    </div>
  ",,test_cue,150.0,,test,0.0,150.0,Parity,9.0,parity,stay,stay,task_stay_cue_stay,17.0,.,150.0,,,,,,,
124,,html-keyboard-response,124,74076,0.0-3.0-90.0,,"
    <div class=""upperbox"">
      <div class=""center-text"" style=""color:white;"">Parity</div>
    </div>
    <div class=""lowerbox"">
      <div class=""gng_number"">
        <div class=""cue-text""><img class = center src='/static/experiments/cued_task_switching_rdoc/images/9.png'></img></div>
      </div>
    </div>
  ",,test_trial,1500.0,,test,0.0,1000.0,Parity,9.0,parity,stay,stay,task_stay_cue_stay,17.0,.,150.0,"[',', '.']",0,,,,,
125,,html-keyboard-response,125,74519,0.0-3.0-91.0,,<div class = upperbox><div class = fixation>+</div></div><div class = lowerbox><div class = fixation>+</div></div>,,test_ITI,438.87446888103966,,test,0.0,438.87446888103966,,,,,,,,,,,,"{'min': 0, 'max': 5, 'mean': 0.5}",,,,
126,,call-function,126,74520,0.0-3.0-92.0,,,,set_stims,,,,,,,,,,,,,,,,,,,,,
127,,html-keyboard-response,127,75025,0.0-3.0-93.0,,<div class = upperbox><div class = fixation>+</div></div><div class = lowerbox><div class = fixation>+</div></div>,,test_fixation,500.0,,test,0.0,500.0,,,,,,,,,,,,,,,,
128,,html-keyboard-response,128,75180,0.0-3.0-94.0,,"
    <div class=""upperbox"">
      <div class=""center-text"" style=""color:white;"">Parity</div>
    </div>
    <div class=""lowerbox"">
      <div class=""fixation"">+</div>
    </div>
  ",,test_cue,150.0,,test,0.0,150.0,Parity,1.0,parity,stay,stay,task_stay_cue_stay,18.0,.,150.0,,,,,,,
129,,html-keyboard-response,129,76687,0.0-3.0-95.0,,"
    <div class=""upperbox"">
      <div class=""center-text"" style=""color:white;"">Parity</div>
    </div>
    <div class=""lowerbox"">
      <div class=""gng_number"">
        <div class=""cue-text""><img class = center src='/static/experiments/cued_task_switching_rdoc/images/1.png'></img></div>
      </div>
    </div>
  ",,test_trial,1500.0,,test,0.0,1000.0,Parity,1.0,parity,stay,stay,task_stay_cue_stay,18.0,.,150.0,"[',', '.']",0,,,,,
130,,html-keyboard-response,130,77127,0.0-3.0-96.0,,<div class = upperbox><div class = fixation>+</div></div><div class = lowerbox><div class = fixation>+</div></div>,,test_ITI,438.5160000835284,,test,0.0,438.5160000835284,,,,,,,,,,,,"{'min': 0, 'max': 5, 'mean': 0.5}",,,,
131,,call-function,131,77128,0.0-3.0-97.0,,,,set_stims,,,,,,,,,,,,,,,,,,,,,
132,,html-keyboard-response,132,77630,0.0-3.0-98.0,,<div class = upperbox><div class = fixation>+</div></div><div class = lowerbox><div class = fixation>+</div></div>,,test_fixation,500.0,,test,0.0,500.0,,,,,,,,,,,,,,,,
133,,html-keyboard-response,133,77787,0.0-3.0-99.0,,"
    <div class=""upperbox"">
      <div class=""center-text"" style=""color:white;"">High-Low</div>
    </div>
    <div class=""lowerbox"">
      <div class=""fixation"">+</div>
    </div>
  ",,test_cue,150.0,,test,0.0,150.0,High-Low,3.0,magnitude,switch,switch,task_switch_cue_switch,19.0,.,150.0,,,,,,,
134,,html-keyboard-response,134,79294,0.0-3.0-100.0,,"
    <div class=""upperbox"">
      <div class=""center-text"" style=""color:white;"">High-Low</div>
    </div>
    <div class=""lowerbox"">
      <div class=""gng_number"">
        <div class=""cue-text""><img class = center src='/static/experiments/cued_task_switching_rdoc/images/3.png'></img></div>
      </div>
    </div>
  ",,test_trial,1500.0,,test,0.0,1000.0,High-Low,3.0,magnitude,switch,switch,task_switch_cue_switch,19.0,.,150.0,"[',', '.']",0,,,,,
135,,html-keyboard-response,135,79514,0.0-3.0-101.0,,<div class = upperbox><div class = fixation>+</div></div><div class = lowerbox><div class = fixation>+</div></div>,,test_ITI,214.4459123434521,,test,0.0,214.4459123434521,,,,,,,,,,,,"{'min': 0, 'max': 5, 'mean': 0.5}",,,,
136,,call-function,136,79515,0.0-3.0-102.0,,,,set_stims,,,,,,,,,,,,,,,,,,,,,
137,,html-keyboard-response,137,80019,0.0-3.0-103.0,,<div class = upperbox><div class = fixation>+</div></div><div class = lowerbox><div class = fixation>+</div></div>,,test_fixation,500.0,,test,0.0,500.0,,,,,,,,,,,,,,,,
138,,html-keyboard-response,138,80174,0.0-3.0-104.0,,"
    <div class=""upperbox"">
      <div class=""center-text"" style=""color:white;"">Parity</div>
    </div>
    <div class=""lowerbox"">
      <div class=""fixation"">+</div>
    </div>
  ",,test_cue,150.0,,test,0.0,150.0,Parity,1.0,parity,switch,switch,task_switch_cue_switch,20.0,.,150.0,,,,,,,
139,,html-keyboard-response,139,81681,0.0-3.0-105.0,,"
    <div class=""upperbox"">
      <div class=""center-text"" style=""color:white;"">Parity</div>
    </div>
    <div class=""lowerbox"">
      <div class=""gng_number"">
        <div class=""cue-text""><img class = center src='/static/experiments/cued_task_switching_rdoc/images/1.png'></img></div>
      </div>
    </div>
  ",,test_trial,1500.0,,test,0.0,1000.0,Parity,1.0,parity,switch,switch,task_switch_cue_switch,20.0,.,150.0,"[',', '.']",0,,,,,
140,,html-keyboard-response,140,83691,0.0-3.0-106.0,,<div class = upperbox><div class = fixation>+</div></div><div class = lowerbox><div class = fixation>+</div></div>,,test_ITI,2006.9343709074658,,test,0.0,2006.9343709074658,,,,,,,,,,,,"{'min': 0, 'max': 5, 'mean': 0.5}",,,,
141,,call-function,141,83692,0.0-3.0-107.0,,,,set_stims,,,,,,,,,,,,,,,,,,,,,
142,,html-keyboard-response,142,84195,0.0-3.0-108.0,,<div class = upperbox><div class = fixation>+</div></div><div class = lowerbox><div class = fixation>+</div></div>,,test_fixation,500.0,,test,0.0,500.0,,,,,,,,,,,,,,,,
143,,html-keyboard-response,143,84352,0.0-3.0-109.0,,"
    <div class=""upperbox"">
      <div class=""center-text"" style=""color:white;"">Magnitude</div>
    </div>
    <div class=""lowerbox"">
      <div class=""fixation"">+</div>
    </div>
  ",,test_cue,150.0,,test,0.0,150.0,Magnitude,1.0,magnitude,switch,switch,task_switch_cue_switch,21.0,.,150.0,,,,,,,
144,,html-keyboard-response,144,85855,0.0-3.0-110.0,,"
    <div class=""upperbox"">
      <div class=""center-text"" style=""color:white;"">Magnitude</div>
    </div>
    <div class=""lowerbox"">
      <div class=""gng_number"">
        <div class=""cue-text""><img class = center src='/static/experiments/cued_task_switching_rdoc/images/1.png'></img></div>
      </div>
    </div>
  ",,test_trial,1500.0,,test,0.0,1000.0,Magnitude,1.0,magnitude,switch,switch,task_switch_cue_switch,21.0,.,150.0,"[',', '.']",0,,,,,
145,,html-keyboard-response,145,85860,0.0-3.0-111.0,,<div class = upperbox><div class = fixation>+</div></div><div class = lowerbox><div class = fixation>+</div></div>,,test_ITI,3.1189996330971903,,test,0.0,3.1189996330971903,,,,,,,,,,,,"{'min': 0, 'max': 5, 'mean': 0.5}",,,,
146,,call-function,146,85860,0.0-3.0-112.0,,,,set_stims,,,,,,,,,,,,,,,,,,,,,
147,,html-keyboard-response,147,86363,0.0-3.0-113.0,,<div class = upperbox><div class = fixation>+</div></div><div class = lowerbox><div class = fixation>+</div></div>,,test_fixation,500.0,,test,0.0,500.0,,,,,,,,,,,,,,,,
148,,html-keyboard-response,148,86520,0.0-3.0-114.0,,"
    <div class=""upperbox"">
      <div class=""center-text"" style=""color:white;"">Even-Odd</div>
    </div>
    <div class=""lowerbox"">
      <div class=""fixation"">+</div>
    </div>
  ",,test_cue,150.0,,test,0.0,150.0,Even-Odd,8.0,parity,switch,switch,task_switch_cue_switch,22.0,",",150.0,,,,,,,
149,,html-keyboard-response,149,88028,0.0-3.0-115.0,,"
    <div class=""upperbox"">
      <div class=""center-text"" style=""color:white;"">Even-Odd</div>
    </div>
    <div class=""lowerbox"">
      <div class=""gng_number"">
        <div class=""cue-text""><img class = center src='/static/experiments/cued_task_switching_rdoc/images/8.png'></img></div>
      </div>
    </div>
  ",,test_trial,1500.0,,test,0.0,1000.0,Even-Odd,8.0,parity,switch,switch,task_switch_cue_switch,22.0,",",150.0,"[',', '.']",0,,,,,
150,,html-keyboard-response,150,88579,0.0-3.0-116.0,,<div class = upperbox><div class = fixation>+</div></div><div class = lowerbox><div class = fixation>+</div></div>,,test_ITI,547.5987554254546,,test,0.0,547.5987554254546,,,,,,,,,,,,"{'min': 0, 'max': 5, 'mean': 0.5}",,,,
151,,call-function,151,88579,0.0-3.0-117.0,,,,set_stims,,,,,,,,,,,,,,,,,,,,,
152,,html-keyboard-response,152,89083,0.0-3.0-118.0,,<div class = upperbox><div class = fixation>+</div></div><div class = lowerbox><div class = fixation>+</div></div>,,test_fixation,500.0,,test,0.0,500.0,,,,,,,,,,,,,,,,
153,,html-keyboard-response,153,89240,0.0-3.0-119.0,,"
    <div class=""upperbox"">
      <div class=""center-text"" style=""color:white;"">Even-Odd</div>
    </div>
    <div class=""lowerbox"">
      <div class=""fixation"">+</div>
    </div>
  ",,test_cue,150.0,,test,0.0,150.0,Even-Odd,8.0,parity,stay,stay,task_stay_cue_stay,23.0,",",150.0,,,,,,,
154,,html-keyboard-response,154,90745,0.0-3.0-120.0,,"
    <div class=""upperbox"">
      <div class=""center-text"" style=""color:white;"">Even-Odd</div>
    </div>
    <div class=""lowerbox"">
      <div class=""gng_number"">
        <div class=""cue-text""><img class = center src='/static/experiments/cued_task_switching_rdoc/images/8.png'></img></div>
      </div>
    </div>
  ",,test_trial,1500.0,,test,0.0,1000.0,Even-Odd,8.0,parity,stay,stay,task_stay_cue_stay,23.0,",",150.0,"[',', '.']",0,,,,,
155,,html-keyboard-response,155,91292,0.0-3.0-121.0,,<div class = upperbox><div class = fixation>+</div></div><div class = lowerbox><div class = fixation>+</div></div>,,test_ITI,544.8157619665103,,test,0.0,544.8157619665103,,,,,,,,,,,,"{'min': 0, 'max': 5, 'mean': 0.5}",,,,
156,,call-function,156,91293,0.0-3.0-122.0,,,,set_stims,,,,,,,,,,,,,,,,,,,,,
157,,html-keyboard-response,157,91797,0.0-3.0-123.0,,<div class = upperbox><div class = fixation>+</div></div><div class = lowerbox><div class = fixation>+</div></div>,,test_fixation,500.0,,test,0.0,500.0,,,,,,,,,,,,,,,,
158,,html-keyboard-response,158,91953,0.0-3.0-124.0,,"
    <div class=""upperbox"">
      <div class=""center-text"" style=""color:white;"">High-Low</div>
    </div>
    <div class=""lowerbox"">
      <div class=""fixation"">+</div>
    </div>
  ",,test_cue,150.0,,test,0.0,150.0,High-Low,4.0,magnitude,switch,switch,task_switch_cue_switch,24.0,.,150.0,,,,,,,
159,,html-keyboard-response,159,93460,0.0-3.0-125.0,,"
    <div class=""upperbox"">
      <div class=""center-text"" style=""color:white;"">High-Low</div>
    </div>
    <div class=""lowerbox"">
      <div class=""gng_number"">
        <div class=""cue-text""><img class = center src='/static/experiments/cued_task_switching_rdoc/images/4.png'></img></div>
      </div>
    </div>
  ",,test_trial,1500.0,,test,0.0,1000.0,High-Low,4.0,magnitude,switch,switch,task_switch_cue_switch,24.0,.,150.0,"[',', '.']",0,,,,,
160,,html-keyboard-response,160,93800,0.0-3.0-126.0,,<div class = upperbox><div class = fixation>+</div></div><div class = lowerbox><div class = fixation>+</div></div>,,test_ITI,336.30970817079645,,test,0.0,336.30970817079645,,,,,,,,,,,,"{'min': 0, 'max': 5, 'mean': 0.5}",,,,
161,,call-function,161,93800,0.0-3.0-127.0,,,,set_stims,,,,,,,,,,,,,,,,,,,,,
162,,html-keyboard-response,162,94304,0.0-3.0-128.0,,<div class = upperbox><div class = fixation>+</div></div><div class = lowerbox><div class = fixation>+</div></div>,,test_fixation,500.0,,test,0.0,500.0,,,,,,,,,,,,,,,,
163,,html-keyboard-response,163,94461,0.0-3.0-129.0,,"
    <div class=""upperbox"">
      <div class=""center-text"" style=""color:white;"">Magnitude</div>
    </div>
    <div class=""lowerbox"">
      <div class=""fixation"">+</div>
    </div>
  ",,test_cue,150.0,,test,0.0,150.0,Magnitude,1.0,magnitude,stay,switch,task_stay_cue_switch,25.0,.,150.0,,,,,,,
164,,html-keyboard-response,164,95968,0.0-3.0-130.0,,"
    <div class=""upperbox"">
      <div class=""center-text"" style=""color:white;"">Magnitude</div>
    </div>
    <div class=""lowerbox"">
      <div class=""gng_number"">
        <div class=""cue-text""><img class = center src='/static/experiments/cued_task_switching_rdoc/images/1.png'></img></div>
      </div>
    </div>
  ",,test_trial,1500.0,,test,0.0,1000.0,Magnitude,1.0,magnitude,stay,switch,task_stay_cue_switch,25.0,.,150.0,"[',', '.']",0,,,,,
165,,html-keyboard-response,165,96343,0.0-3.0-131.0,,<div class = upperbox><div class = fixation>+</div></div><div class = lowerbox><div class = fixation>+</div></div>,,test_ITI,368.1365942105691,,test,0.0,368.1365942105691,,,,,,,,,,,,"{'min': 0, 'max': 5, 'mean': 0.5}",,,,
166,,call-function,166,96343,0.0-3.0-132.0,,,,set_stims,,,,,,,,,,,,,,,,,,,,,
167,,html-keyboard-response,167,96845,0.0-3.0-133.0,,<div class = upperbox><div class = fixation>+</div></div><div class = lowerbox><div class = fixation>+</div></div>,,test_fixation,500.0,,test,0.0,500.0,,,,,,,,,,,,,,,,
168,,html-keyboard-response,168,97001,0.0-3.0-134.0,,"
    <div class=""upperbox"">
      <div class=""center-text"" style=""color:white;"">High-Low</div>
    </div>
    <div class=""lowerbox"">
      <div class=""fixation"">+</div>
    </div>
  ",,test_cue,150.0,,test,0.0,150.0,High-Low,9.0,magnitude,stay,switch,task_stay_cue_switch,26.0,",",150.0,,,,,,,
169,,html-keyboard-response,169,98508,0.0-3.0-135.0,,"
    <div class=""upperbox"">
      <div class=""center-text"" style=""color:white;"">High-Low</div>
    </div>
    <div class=""lowerbox"">
      <div class=""gng_number"">
        <div class=""cue-text""><img class = center src='/static/experiments/cued_task_switching_rdoc/images/9.png'></img></div>
      </div>
    </div>
  ",,test_trial,1500.0,,test,0.0,1000.0,High-Low,9.0,magnitude,stay,switch,task_stay_cue_switch,26.0,",",150.0,"[',', '.']",0,,,,,
170,,html-keyboard-response,170,99145,0.0-3.0-136.0,,<div class = upperbox><div class = fixation>+</div></div><div class = lowerbox><div class = fixation>+</div></div>,,test_ITI,631.0007534027462,,test,0.0,631.0007534027462,,,,,,,,,,,,"{'min': 0, 'max': 5, 'mean': 0.5}",,,,
171,,call-function,171,99146,0.0-3.0-137.0,,,,set_stims,,,,,,,,,,,,,,,,,,,,,
172,,html-keyboard-response,172,99651,0.0-3.0-138.0,,<div class = upperbox><div class = fixation>+</div></div><div class = lowerbox><div class = fixation>+</div></div>,,test_fixation,500.0,,test,0.0,500.0,,,,,,,,,,,,,,,,
173,,html-keyboard-response,173,99809,0.0-3.0-139.0,,"
    <div class=""upperbox"">
      <div class=""center-text"" style=""color:white;"">Even-Odd</div>
    </div>
    <div class=""lowerbox"">
      <div class=""fixation"">+</div>
    </div>
  ",,test_cue,150.0,,test,0.0,150.0,Even-Odd,9.0,parity,switch,switch,task_switch_cue_switch,27.0,.,150.0,,,,,,,
174,,html-keyboard-response,174,101315,0.0-3.0-140.0,,"
    <div class=""upperbox"">
      <div class=""center-text"" style=""color:white;"">Even-Odd</div>
    </div>
    <div class=""lowerbox"">
      <div class=""gng_number"">
        <div class=""cue-text""><img class = center src='/static/experiments/cued_task_switching_rdoc/images/9.png'></img></div>
      </div>
    </div>
  ",,test_trial,1500.0,,test,0.0,1000.0,Even-Odd,9.0,parity,switch,switch,task_switch_cue_switch,27.0,.,150.0,"[',', '.']",0,,,,,
175,,html-keyboard-response,175,102450,0.0-3.0-141.0,,<div class = upperbox><div class = fixation>+</div></div><div class = lowerbox><div class = fixation>+</div></div>,,test_ITI,1133.087975020068,,test,0.0,1133.087975020068,,,,,,,,,,,,"{'min': 0, 'max': 5, 'mean': 0.5}",,,,
176,,call-function,176,102450,0.0-3.0-142.0,,,,set_stims,,,,,,,,,,,,,,,,,,,,,
177,,html-keyboard-response,177,102953,0.0-3.0-143.0,,<div class = upperbox><div class = fixation>+</div></div><div class = lowerbox><div class = fixation>+</div></div>,,test_fixation,500.0,,test,0.0,500.0,,,,,,,,,,,,,,,,
178,,html-keyboard-response,178,103110,0.0-3.0-144.0,,"
    <div class=""upperbox"">
      <div class=""center-text"" style=""color:white;"">Magnitude</div>
    </div>
    <div class=""lowerbox"">
      <div class=""fixation"">+</div>
    </div>
  ",,test_cue,150.0,,test,0.0,150.0,Magnitude,1.0,magnitude,switch,switch,task_switch_cue_switch,28.0,.,150.0,,,,,,,
179,,html-keyboard-response,179,104615,0.0-3.0-145.0,,"
    <div class=""upperbox"">
      <div class=""center-text"" style=""color:white;"">Magnitude</div>
    </div>
    <div class=""lowerbox"">
      <div class=""gng_number"">
        <div class=""cue-text""><img class = center src='/static/experiments/cued_task_switching_rdoc/images/1.png'></img></div>
      </div>
    </div>
  ",,test_trial,1500.0,,test,0.0,1000.0,Magnitude,1.0,magnitude,switch,switch,task_switch_cue_switch,28.0,.,150.0,"[',', '.']",0,,,,,
180,,html-keyboard-response,180,104730,0.0-3.0-146.0,,<div class = upperbox><div class = fixation>+</div></div><div class = lowerbox><div class = fixation>+</div></div>,,test_ITI,112.11072090611061,,test,0.0,112.11072090611061,,,,,,,,,,,,"{'min': 0, 'max': 5, 'mean': 0.5}",,,,
181,,call-function,181,104730,0.0-3.0-147.0,,,,set_stims,,,,,,,,,,,,,,,,,,,,,
182,,html-keyboard-response,182,105233,0.0-3.0-148.0,,<div class = upperbox><div class = fixation>+</div></div><div class = lowerbox><div class = fixation>+</div></div>,,test_fixation,500.0,,test,0.0,500.0,,,,,,,,,,,,,,,,
183,,html-keyboard-response,183,105386,0.0-3.0-149.0,,"
    <div class=""upperbox"">
      <div class=""center-text"" style=""color:white;"">Even-Odd</div>
    </div>
    <div class=""lowerbox"">
      <div class=""fixation"">+</div>
    </div>
  ",,test_cue,150.0,,test,0.0,150.0,Even-Odd,1.0,parity,switch,switch,task_switch_cue_switch,29.0,.,150.0,,,,,,,
184,,html-keyboard-response,184,106894,0.0-3.0-150.0,,"
    <div class=""upperbox"">
      <div class=""center-text"" style=""color:white;"">Even-Odd</div>
    </div>
    <div class=""lowerbox"">
      <div class=""gng_number"">
        <div class=""cue-text""><img class = center src='/static/experiments/cued_task_switching_rdoc/images/1.png'></img></div>
      </div>
    </div>
  ",,test_trial,1500.0,,test,0.0,1000.0,Even-Odd,1.0,parity,switch,switch,task_switch_cue_switch,29.0,.,150.0,"[',', '.']",0,,,,,
185,,html-keyboard-response,185,107647,0.0-3.0-151.0,,<div class = upperbox><div class = fixation>+</div></div><div class = lowerbox><div class = fixation>+</div></div>,,test_ITI,747.9096166819513,,test,0.0,747.9096166819513,,,,,,,,,,,,"{'min': 0, 'max': 5, 'mean': 0.5}",,,,
186,,call-function,186,107648,0.0-3.0-152.0,,,,set_stims,,,,,,,,,,,,,,,,,,,,,
187,,html-keyboard-response,187,108152,0.0-3.0-153.0,,<div class = upperbox><div class = fixation>+</div></div><div class = lowerbox><div class = fixation>+</div></div>,,test_fixation,500.0,,test,0.0,500.0,,,,,,,,,,,,,,,,
188,,html-keyboard-response,188,108308,0.0-3.0-154.0,,"
    <div class=""upperbox"">
      <div class=""center-text"" style=""color:white;"">Magnitude</div>
    </div>
    <div class=""lowerbox"">
      <div class=""fixation"">+</div>
    </div>
  ",,test_cue,150.0,,test,0.0,150.0,Magnitude,4.0,magnitude,switch,switch,task_switch_cue_switch,30.0,.,150.0,,,,,,,
189,,html-keyboard-response,189,109815,0.0-3.0-155.0,,"
    <div class=""upperbox"">
      <div class=""center-text"" style=""color:white;"">Magnitude</div>
    </div>
    <div class=""lowerbox"">
      <div class=""gng_number"">
        <div class=""cue-text""><img class = center src='/static/experiments/cued_task_switching_rdoc/images/4.png'></img></div>
      </div>
    </div>
  ",,test_trial,1500.0,,test,0.0,1000.0,Magnitude,4.0,magnitude,switch,switch,task_switch_cue_switch,30.0,.,150.0,"[',', '.']",0,,,,,
190,,html-keyboard-response,190,110087,0.0-3.0-156.0,,<div class = upperbox><div class = fixation>+</div></div><div class = lowerbox><div class = fixation>+</div></div>,,test_ITI,266.6842765157776,,test,0.0,266.6842765157776,,,,,,,,,,,,"{'min': 0, 'max': 5, 'mean': 0.5}",,,,
191,,call-function,191,110088,0.0-3.0-157.0,,,,set_stims,,,,,,,,,,,,,,,,,,,,,
192,,html-keyboard-response,192,110591,0.0-3.0-158.0,,<div class = upperbox><div class = fixation>+</div></div><div class = lowerbox><div class = fixation>+</div></div>,,test_fixation,500.0,,test,0.0,500.0,,,,,,,,,,,,,,,,
193,,html-keyboard-response,193,110747,0.0-3.0-159.0,,"
    <div class=""upperbox"">
      <div class=""center-text"" style=""color:white;"">Even-Odd</div>
    </div>
    <div class=""lowerbox"">
      <div class=""fixation"">+</div>
    </div>
  ",,test_cue,150.0,,test,0.0,150.0,Even-Odd,2.0,parity,switch,switch,task_switch_cue_switch,31.0,",",150.0,,,,,,,
194,,html-keyboard-response,194,112254,0.0-3.0-160.0,,"
    <div class=""upperbox"">
      <div class=""center-text"" style=""color:white;"">Even-Odd</div>
    </div>
    <div class=""lowerbox"">
      <div class=""gng_number"">
        <div class=""cue-text""><img class = center src='/static/experiments/cued_task_switching_rdoc/images/2.png'></img></div>
      </div>
    </div>
  ",,test_trial,1500.0,,test,0.0,1000.0,Even-Odd,2.0,parity,switch,switch,task_switch_cue_switch,31.0,",",150.0,"[',', '.']",0,,,,,
195,,html-keyboard-response,195,113467,0.0-3.0-161.0,,<div class = upperbox><div class = fixation>+</div></div><div class = lowerbox><div class = fixation>+</div></div>,,test_ITI,1211.0189301249811,,test,0.0,1211.0189301249811,,,,,,,,,,,,"{'min': 0, 'max': 5, 'mean': 0.5}",,,,
196,,call-function,196,113468,0.0-3.0-162.0,,,,set_stims,,,,,,,,,,,,,,,,,,,,,
197,,html-keyboard-response,197,113971,0.0-3.0-163.0,,<div class = upperbox><div class = fixation>+</div></div><div class = lowerbox><div class = fixation>+</div></div>,,test_fixation,500.0,,test,0.0,500.0,,,,,,,,,,,,,,,,
198,,html-keyboard-response,198,114127,0.0-3.0-164.0,,"
    <div class=""upperbox"">
      <div class=""center-text"" style=""color:white;"">Parity</div>
    </div>
    <div class=""lowerbox"">
      <div class=""fixation"">+</div>
    </div>
  ",,test_cue,150.0,,test,0.0,150.0,Parity,1.0,parity,stay,switch,task_stay_cue_switch,32.0,.,150.0,,,,,,,
199,,html-keyboard-response,199,115634,0.0-3.0-165.0,,"
    <div class=""upperbox"">
      <div class=""center-text"" style=""color:white;"">Parity</div>
    </div>
    <div class=""lowerbox"">
      <div class=""gng_number"">
        <div class=""cue-text""><img class = center src='/static/experiments/cued_task_switching_rdoc/images/1.png'></img></div>
      </div>
    </div>
  ",,test_trial,1500.0,,test,0.0,1000.0,Parity,1.0,parity,stay,switch,task_stay_cue_switch,32.0,.,150.0,"[',', '.']",0,,,,,
200,,html-keyboard-response,200,115654,0.0-3.0-166.0,,<div class = upperbox><div class = fixation>+</div></div><div class = lowerbox><div class = fixation>+</div></div>,,test_ITI,16.861766164580917,,test,0.0,16.861766164580917,,,,,,,,,,,,"{'min': 0, 'max': 5, 'mean': 0.5}",,,,
201,,call-function,201,115655,0.0-3.0-167.0,,,,set_stims,,,,,,,,,,,,,,,,,,,,,
202,,html-keyboard-response,202,116159,0.0-3.0-168.0,,<div class = upperbox><div class = fixation>+</div></div><div class = lowerbox><div class = fixation>+</div></div>,,test_fixation,500.0,,test,0.0,500.0,,,,,,,,,,,,,,,,
203,,html-keyboard-response,203,116315,0.0-3.0-169.0,,"
    <div class=""upperbox"">
      <div class=""center-text"" style=""color:white;"">Magnitude</div>
    </div>
    <div class=""lowerbox"">
      <div class=""fixation"">+</div>
    </div>
  ",,test_cue,150.0,,test,0.0,150.0,Magnitude,9.0,magnitude,switch,switch,task_switch_cue_switch,33.0,",",150.0,,,,,,,
204,,html-keyboard-response,204,117823,0.0-3.0-170.0,,"
    <div class=""upperbox"">
      <div class=""center-text"" style=""color:white;"">Magnitude</div>
    </div>
    <div class=""lowerbox"">
      <div class=""gng_number"">
        <div class=""cue-text""><img class = center src='/static/experiments/cued_task_switching_rdoc/images/9.png'></img></div>
      </div>
    </div>
  ",,test_trial,1500.0,,test,0.0,1000.0,Magnitude,9.0,magnitude,switch,switch,task_switch_cue_switch,33.0,",",150.0,"[',', '.']",0,,,,,
205,,html-keyboard-response,205,118208,0.0-3.0-171.0,,<div class = upperbox><div class = fixation>+</div></div><div class = lowerbox><div class = fixation>+</div></div>,,test_ITI,378.90888402088314,,test,0.0,378.90888402088314,,,,,,,,,,,,"{'min': 0, 'max': 5, 'mean': 0.5}",,,,
206,,call-function,206,118208,0.0-3.0-172.0,,,,set_stims,,,,,,,,,,,,,,,,,,,,,
207,,html-keyboard-response,207,118712,0.0-3.0-173.0,,<div class = upperbox><div class = fixation>+</div></div><div class = lowerbox><div class = fixation>+</div></div>,,test_fixation,500.0,,test,0.0,500.0,,,,,,,,,,,,,,,,
208,,html-keyboard-response,208,118869,0.0-3.0-174.0,,"
    <div class=""upperbox"">
      <div class=""center-text"" style=""color:white;"">Parity</div>
    </div>
    <div class=""lowerbox"">
      <div class=""fixation"">+</div>
    </div>
  ",,test_cue,150.0,,test,0.0,150.0,Parity,8.0,parity,switch,switch,task_switch_cue_switch,34.0,",",150.0,,,,,,,
209,,html-keyboard-response,209,120376,0.0-3.0-175.0,,"
    <div class=""upperbox"">
      <div class=""center-text"" style=""color:white;"">Parity</div>
    </div>
    <div class=""lowerbox"">
      <div class=""gng_number"">
        <div class=""cue-text""><img class = center src='/static/experiments/cued_task_switching_rdoc/images/8.png'></img></div>
      </div>
    </div>
  ",,test_trial,1500.0,,test,0.0,1000.0,Parity,8.0,parity,switch,switch,task_switch_cue_switch,34.0,",",150.0,"[',', '.']",0,,,,,
210,,html-keyboard-response,210,121383,0.0-3.0-176.0,,<div class = upperbox><div class = fixation>+</div></div><div class = lowerbox><div class = fixation>+</div></div>,,test_ITI,1001.8325740533343,,test,0.0,1001.8325740533343,,,,,,,,,,,,"{'min': 0, 'max': 5, 'mean': 0.5}",,,,
211,,call-function,211,121384,0.0-3.0-177.0,,,,set_stims,,,,,,,,,,,,,,,,,,,,,
212,,html-keyboard-response,212,121885,0.0-3.0-178.0,,<div class = upperbox><div class = fixation>+</div></div><div class = lowerbox><div class = fixation>+</div></div>,,test_fixation,500.0,,test,0.0,500.0,,,,,,,,,,,,,,,,
213,,html-keyboard-response,213,122042,0.0-3.0-179.0,,"
    <div class=""upperbox"">
      <div class=""center-text"" style=""color:white;"">Even-Odd</div>
    </div>
    <div class=""lowerbox"">
      <div class=""fixation"">+</div>
    </div>
  ",,test_cue,150.0,,test,0.0,150.0,Even-Odd,9.0,parity,stay,switch,task_stay_cue_switch,35.0,.,150.0,,,,,,,
214,,html-keyboard-response,214,123547,0.0-3.0-180.0,,"
    <div class=""upperbox"">
      <div class=""center-text"" style=""color:white;"">Even-Odd</div>
    </div>
    <div class=""lowerbox"">
      <div class=""gng_number"">
        <div class=""cue-text""><img class = center src='/static/experiments/cued_task_switching_rdoc/images/9.png'></img></div>
      </div>
    </div>
  ",,test_trial,1500.0,,test,0.0,1000.0,Even-Odd,9.0,parity,stay,switch,task_stay_cue_switch,35.0,.,150.0,"[',', '.']",0,,,,,
215,,html-keyboard-response,215,123645,0.0-3.0-181.0,,<div class = upperbox><div class = fixation>+</div></div><div class = lowerbox><div class = fixation>+</div></div>,,test_ITI,91.0232351564999,,test,0.0,91.0232351564999,,,,,,,,,,,,"{'min': 0, 'max': 5, 'mean': 0.5}",,,,
216,,call-function,216,123646,0.0-3.0-182.0,,,,set_stims,,,,,,,,,,,,,,,,,,,,,
217,,html-keyboard-response,217,124152,0.0-3.0-183.0,,<div class = upperbox><div class = fixation>+</div></div><div class = lowerbox><div class = fixation>+</div></div>,,test_fixation,500.0,,test,0.0,500.0,,,,,,,,,,,,,,,,
218,,html-keyboard-response,218,124306,0.0-3.0-184.0,,"
    <div class=""upperbox"">
      <div class=""center-text"" style=""color:white;"">Magnitude</div>
    </div>
    <div class=""lowerbox"">
      <div class=""fixation"">+</div>
    </div>
  ",,test_cue,150.0,,test,0.0,150.0,Magnitude,9.0,magnitude,switch,switch,task_switch_cue_switch,36.0,",",150.0,,,,,,,
219,,html-keyboard-response,219,125811,0.0-3.0-185.0,,"
    <div class=""upperbox"">
      <div class=""center-text"" style=""color:white;"">Magnitude</div>
    </div>
    <div class=""lowerbox"">
      <div class=""gng_number"">
        <div class=""cue-text""><img class = center src='/static/experiments/cued_task_switching_rdoc/images/9.png'></img></div>
      </div>
    </div>
  ",,test_trial,1500.0,,test,0.0,1000.0,Magnitude,9.0,magnitude,switch,switch,task_switch_cue_switch,36.0,",",150.0,"[',', '.']",0,,,,,
220,,html-keyboard-response,220,126535,0.0-3.0-186.0,,<div class = upperbox><div class = fixation>+</div></div><div class = lowerbox><div class = fixation>+</div></div>,,test_ITI,722.7575763615142,,test,0.0,722.7575763615142,,,,,,,,,,,,"{'min': 0, 'max': 5, 'mean': 0.5}",,,,
221,,call-function,221,126536,0.0-3.0-187.0,,,,set_stims,,,,,,,,,,,,,,,,,,,,,
222,,html-keyboard-response,222,127039,0.0-3.0-188.0,,<div class = upperbox><div class = fixation>+</div></div><div class = lowerbox><div class = fixation>+</div></div>,,test_fixation,500.0,,test,0.0,500.0,,,,,,,,,,,,,,,,
223,,html-keyboard-response,223,127196,0.0-3.0-189.0,,"
    <div class=""upperbox"">
      <div class=""center-text"" style=""color:white;"">High-Low</div>
    </div>
    <div class=""lowerbox"">
      <div class=""fixation"">+</div>
    </div>
  ",,test_cue,150.0,,test,0.0,150.0,High-Low,4.0,magnitude,stay,switch,task_stay_cue_switch,37.0,.,150.0,,,,,,,
224,,html-keyboard-response,224,128700,0.0-3.0-190.0,,"
    <div class=""upperbox"">
      <div class=""center-text"" style=""color:white;"">High-Low</div>
    </div>
    <div class=""lowerbox"">
      <div class=""gng_number"">
        <div class=""cue-text""><img class = center src='/static/experiments/cued_task_switching_rdoc/images/4.png'></img></div>
      </div>
    </div>
  ",,test_trial,1500.0,,test,0.0,1000.0,High-Low,4.0,magnitude,stay,switch,task_stay_cue_switch,37.0,.,150.0,"[',', '.']",0,,,,,
225,,html-keyboard-response,225,129014,0.0-3.0-191.0,,<div class = upperbox><div class = fixation>+</div></div><div class = lowerbox><div class = fixation>+</div></div>,,test_ITI,307.3735438228245,,test,0.0,307.3735438228245,,,,,,,,,,,,"{'min': 0, 'max': 5, 'mean': 0.5}",,,,
226,,call-function,226,129015,0.0-3.0-192.0,,,,set_stims,,,,,,,,,,,,,,,,,,,,,
227,,html-keyboard-response,227,129518,0.0-3.0-193.0,,<div class = upperbox><div class = fixation>+</div></div><div class = lowerbox><div class = fixation>+</div></div>,,test_fixation,500.0,,test,0.0,500.0,,,,,,,,,,,,,,,,
228,,html-keyboard-response,228,129672,0.0-3.0-194.0,,"
    <div class=""upperbox"">
      <div class=""center-text"" style=""color:white;"">Even-Odd</div>
    </div>
    <div class=""lowerbox"">
      <div class=""fixation"">+</div>
    </div>
  ",,test_cue,150.0,,test,0.0,150.0,Even-Odd,4.0,parity,switch,switch,task_switch_cue_switch,38.0,",",150.0,,,,,,,
229,,html-keyboard-response,229,131174,0.0-3.0-195.0,,"
    <div class=""upperbox"">
      <div class=""center-text"" style=""color:white;"">Even-Odd</div>
    </div>
    <div class=""lowerbox"">
      <div class=""gng_number"">
        <div class=""cue-text""><img class = center src='/static/experiments/cued_task_switching_rdoc/images/4.png'></img></div>
      </div>
    </div>
  ",,test_trial,1500.0,,test,0.0,1000.0,Even-Odd,4.0,parity,switch,switch,task_switch_cue_switch,38.0,",",150.0,"[',', '.']",0,,,,,
230,,html-keyboard-response,230,131764,0.0-3.0-196.0,,<div class = upperbox><div class = fixation>+</div></div><div class = lowerbox><div class = fixation>+</div></div>,,test_ITI,583.8312791959926,,test,0.0,583.8312791959926,,,,,,,,,,,,"{'min': 0, 'max': 5, 'mean': 0.5}",,,,
231,,call-function,231,131764,0.0-3.0-197.0,,,,set_stims,,,,,,,,,,,,,,,,,,,,,
232,,html-keyboard-response,232,132268,0.0-3.0-198.0,,<div class = upperbox><div class = fixation>+</div></div><div class = lowerbox><div class = fixation>+</div></div>,,test_fixation,500.0,,test,0.0,500.0,,,,,,,,,,,,,,,,
233,,html-keyboard-response,233,132424,0.0-3.0-199.0,,"
    <div class=""upperbox"">
      <div class=""center-text"" style=""color:white;"">High-Low</div>
    </div>
    <div class=""lowerbox"">
      <div class=""fixation"">+</div>
    </div>
  ",,test_cue,150.0,,test,0.0,150.0,High-Low,1.0,magnitude,switch,switch,task_switch_cue_switch,39.0,.,150.0,,,,,,,
234,,html-keyboard-response,234,133928,0.0-3.0-200.0,,"
    <div class=""upperbox"">
      <div class=""center-text"" style=""color:white;"">High-Low</div>
    </div>
    <div class=""lowerbox"">
      <div class=""gng_number"">
        <div class=""cue-text""><img class = center src='/static/experiments/cued_task_switching_rdoc/images/1.png'></img></div>
      </div>
    </div>
  ",,test_trial,1500.0,,test,0.0,1000.0,High-Low,1.0,magnitude,switch,switch,task_switch_cue_switch,39.0,.,150.0,"[',', '.']",0,,,,,
235,,html-keyboard-response,235,135057,0.0-3.0-201.0,,<div class = upperbox><div class = fixation>+</div></div><div class = lowerbox><div class = fixation>+</div></div>,,test_ITI,1126.2813651653169,,test,0.0,1126.2813651653169,,,,,,,,,,,,"{'min': 0, 'max': 5, 'mean': 0.5}",,,,
236,,call-function,236,135058,0.0-3.0-202.0,,,,set_stims,,,,,,,,,,,,,,,,,,,,,
237,,html-keyboard-response,237,135561,0.0-3.0-203.0,,<div class = upperbox><div class = fixation>+</div></div><div class = lowerbox><div class = fixation>+</div></div>,,test_fixation,500.0,,test,0.0,500.0,,,,,,,,,,,,,,,,
238,,html-keyboard-response,238,135715,0.0-3.0-204.0,,"
    <div class=""upperbox"">
      <div class=""center-text"" style=""color:white;"">Magnitude</div>
    </div>
    <div class=""lowerbox"">
      <div class=""fixation"">+</div>
    </div>
  ",,test_cue,150.0,,test,0.0,150.0,Magnitude,2.0,magnitude,stay,switch,task_stay_cue_switch,40.0,.,150.0,,,,,,,
239,,html-keyboard-response,239,137219,0.0-3.0-205.0,,"
    <div class=""upperbox"">
      <div class=""center-text"" style=""color:white;"">Magnitude</div>
    </div>
    <div class=""lowerbox"">
      <div class=""gng_number"">
        <div class=""cue-text""><img class = center src='/static/experiments/cued_task_switching_rdoc/images/2.png'></img></div>
      </div>
    </div>
  ",,test_trial,1500.0,,test,0.0,1000.0,Magnitude,2.0,magnitude,stay,switch,task_stay_cue_switch,40.0,.,150.0,"[',', '.']",0,,,,,
240,,html-keyboard-response,240,137422,0.0-3.0-206.0,,<div class = upperbox><div class = fixation>+</div></div><div class = lowerbox><div class = fixation>+</div></div>,,test_ITI,198.9330276689268,,test,0.0,198.9330276689268,,,,,,,,,,,,"{'min': 0, 'max': 5, 'mean': 0.5}",,,,
241,,call-function,241,137423,0.0-3.0-207.0,,,,set_stims,,,,,,,,,,,,,,,,,,,,,
242,,html-keyboard-response,242,137926,0.0-3.0-208.0,,<div class = upperbox><div class = fixation>+</div></div><div class = lowerbox><div class = fixation>+</div></div>,,test_fixation,500.0,,test,0.0,500.0,,,,,,,,,,,,,,,,
243,,html-keyboard-response,243,138082,0.0-3.0-209.0,,"
    <div class=""upperbox"">
      <div class=""center-text"" style=""color:white;"">Magnitude</div>
    </div>
    <div class=""lowerbox"">
      <div class=""fixation"">+</div>
    </div>
  ",,test_cue,150.0,,test,0.0,150.0,Magnitude,9.0,magnitude,stay,stay,task_stay_cue_stay,41.0,",",150.0,,,,,,,
244,,html-keyboard-response,244,139588,0.0-3.0-210.0,,"
    <div class=""upperbox"">
      <div class=""center-text"" style=""color:white;"">Magnitude</div>
    </div>
    <div class=""lowerbox"">
      <div class=""gng_number"">
        <div class=""cue-text""><img class = center src='/static/experiments/cued_task_switching_rdoc/images/9.png'></img></div>
      </div>
    </div>
  ",,test_trial,1500.0,,test,0.0,1000.0,Magnitude,9.0,magnitude,stay,stay,task_stay_cue_stay,41.0,",",150.0,"[',', '.']",0,,,,,
245,,html-keyboard-response,245,139934,0.0-3.0-211.0,,<div class = upperbox><div class = fixation>+</div></div><div class = lowerbox><div class = fixation>+</div></div>,,test_ITI,341.32772208278277,,test,0.0,341.32772208278277,,,,,,,,,,,,"{'min': 0, 'max': 5, 'mean': 0.5}",,,,
246,,call-function,246,139934,0.0-3.0-212.0,,,,set_stims,,,,,,,,,,,,,,,,,,,,,
247,,html-keyboard-response,247,140437,0.0-3.0-213.0,,<div class = upperbox><div class = fixation>+</div></div><div class = lowerbox><div class = fixation>+</div></div>,,test_fixation,500.0,,test,0.0,500.0,,,,,,,,,,,,,,,,
248,,html-keyboard-response,248,140594,0.0-3.0-214.0,,"
    <div class=""upperbox"">
      <div class=""center-text"" style=""color:white;"">Parity</div>
    </div>
    <div class=""lowerbox"">
      <div class=""fixation"">+</div>
    </div>
  ",,test_cue,150.0,,test,0.0,150.0,Parity,4.0,parity,switch,switch,task_switch_cue_switch,42.0,",",150.0,,,,,,,
249,,html-keyboard-response,249,142101,0.0-3.0-215.0,,"
    <div class=""upperbox"">
      <div class=""center-text"" style=""color:white;"">Parity</div>
    </div>
    <div class=""lowerbox"">
      <div class=""gng_number"">
        <div class=""cue-text""><img class = center src='/static/experiments/cued_task_switching_rdoc/images/4.png'></img></div>
      </div>
    </div>
  ",,test_trial,1500.0,,test,0.0,1000.0,Parity,4.0,parity,switch,switch,task_switch_cue_switch,42.0,",",150.0,"[',', '.']",0,,,,,
250,,html-keyboard-response,250,142176,0.0-3.0-216.0,,<div class = upperbox><div class = fixation>+</div></div><div class = lowerbox><div class = fixation>+</div></div>,,test_ITI,69.66909890977927,,test,0.0,69.66909890977927,,,,,,,,,,,,"{'min': 0, 'max': 5, 'mean': 0.5}",,,,
251,,call-function,251,142176,0.0-3.0-217.0,,,,set_stims,,,,,,,,,,,,,,,,,,,,,
252,,html-keyboard-response,252,142681,0.0-3.0-218.0,,<div class = upperbox><div class = fixation>+</div></div><div class = lowerbox><div class = fixation>+</div></div>,,test_fixation,500.0,,test,0.0,500.0,,,,,,,,,,,,,,,,
253,,html-keyboard-response,253,142838,0.0-3.0-219.0,,"
    <div class=""upperbox"">
      <div class=""center-text"" style=""color:white;"">Magnitude</div>
    </div>
    <div class=""lowerbox"">
      <div class=""fixation"">+</div>
    </div>
  ",,test_cue,150.0,,test,0.0,150.0,Magnitude,4.0,magnitude,switch,switch,task_switch_cue_switch,43.0,.,150.0,,,,,,,
254,,html-keyboard-response,254,144345,0.0-3.0-220.0,,"
    <div class=""upperbox"">
      <div class=""center-text"" style=""color:white;"">Magnitude</div>
    </div>
    <div class=""lowerbox"">
      <div class=""gng_number"">
        <div class=""cue-text""><img class = center src='/static/experiments/cued_task_switching_rdoc/images/4.png'></img></div>
      </div>
    </div>
  ",,test_trial,1500.0,,test,0.0,1000.0,Magnitude,4.0,magnitude,switch,switch,task_switch_cue_switch,43.0,.,150.0,"[',', '.']",0,,,,,
255,,html-keyboard-response,255,144522,0.0-3.0-221.0,,<div class = upperbox><div class = fixation>+</div></div><div class = lowerbox><div class = fixation>+</div></div>,,test_ITI,173.57132136230624,,test,0.0,173.57132136230624,,,,,,,,,,,,"{'min': 0, 'max': 5, 'mean': 0.5}",,,,
256,,call-function,256,144522,0.0-3.0-222.0,,,,set_stims,,,,,,,,,,,,,,,,,,,,,
257,,html-keyboard-response,257,145025,0.0-3.0-223.0,,<div class = upperbox><div class = fixation>+</div></div><div class = lowerbox><div class = fixation>+</div></div>,,test_fixation,500.0,,test,0.0,500.0,,,,,,,,,,,,,,,,
258,,html-keyboard-response,258,145182,0.0-3.0-224.0,,"
    <div class=""upperbox"">
      <div class=""center-text"" style=""color:white;"">Magnitude</div>
    </div>
    <div class=""lowerbox"">
      <div class=""fixation"">+</div>
    </div>
  ",,test_cue,150.0,,test,0.0,150.0,Magnitude,9.0,magnitude,stay,stay,task_stay_cue_stay,44.0,",",150.0,,,,,,,
259,,html-keyboard-response,259,146689,0.0-3.0-225.0,,"
    <div class=""upperbox"">
      <div class=""center-text"" style=""color:white;"">Magnitude</div>
    </div>
    <div class=""lowerbox"">
      <div class=""gng_number"">
        <div class=""cue-text""><img class = center src='/static/experiments/cued_task_switching_rdoc/images/9.png'></img></div>
      </div>
    </div>
  ",,test_trial,1500.0,,test,0.0,1000.0,Magnitude,9.0,magnitude,stay,stay,task_stay_cue_stay,44.0,",",150.0,"[',', '.']",0,,,,,
260,,html-keyboard-response,260,146747,0.0-3.0-226.0,,<div class = upperbox><div class = fixation>+</div></div><div class = lowerbox><div class = fixation>+</div></div>,,test_ITI,51.77588584843781,,test,0.0,51.77588584843781,,,,,,,,,,,,"{'min': 0, 'max': 5, 'mean': 0.5}",,,,
261,,call-function,261,146747,0.0-3.0-227.0,,,,set_stims,,,,,,,,,,,,,,,,,,,,,
262,,html-keyboard-response,262,147253,0.0-3.0-228.0,,<div class = upperbox><div class = fixation>+</div></div><div class = lowerbox><div class = fixation>+</div></div>,,test_fixation,500.0,,test,0.0,500.0,,,,,,,,,,,,,,,,
263,,html-keyboard-response,263,147410,0.0-3.0-229.0,,"
    <div class=""upperbox"">
      <div class=""center-text"" style=""color:white;"">High-Low</div>
    </div>
    <div class=""lowerbox"">
      <div class=""fixation"">+</div>
    </div>
  ",,test_cue,150.0,,test,0.0,150.0,High-Low,9.0,magnitude,stay,switch,task_stay_cue_switch,45.0,",",150.0,,,,,,,
264,,html-keyboard-response,264,148917,0.0-3.0-230.0,,"
    <div class=""upperbox"">
      <div class=""center-text"" style=""color:white;"">High-Low</div>
    </div>
    <div class=""lowerbox"">
      <div class=""gng_number"">
        <div class=""cue-text""><img class = center src='/static/experiments/cued_task_switching_rdoc/images/9.png'></img></div>
      </div>
    </div>
  ",,test_trial,1500.0,,test,0.0,1000.0,High-Low,9.0,magnitude,stay,switch,task_stay_cue_switch,45.0,",",150.0,"[',', '.']",0,,,,,
265,,html-keyboard-response,265,149557,0.0-3.0-231.0,,<div class = upperbox><div class = fixation>+</div></div><div class = lowerbox><div class = fixation>+</div></div>,,test_ITI,634.7916849044798,,test,0.0,634.7916849044798,,,,,,,,,,,,"{'min': 0, 'max': 5, 'mean': 0.5}",,,,
266,,call-function,266,149558,0.0-3.0-232.0,,,,set_stims,,,,,,,,,,,,,,,,,,,,,
267,,html-keyboard-response,267,150063,0.0-3.0-233.0,,<div class = upperbox><div class = fixation>+</div></div><div class = lowerbox><div class = fixation>+</div></div>,,test_fixation,500.0,,test,0.0,500.0,,,,,,,,,,,,,,,,
268,,html-keyboard-response,268,150219,0.0-3.0-234.0,,"
    <div class=""upperbox"">
      <div class=""center-text"" style=""color:white;"">Even-Odd</div>
    </div>
    <div class=""lowerbox"">
      <div class=""fixation"">+</div>
    </div>
  ",,test_cue,150.0,,test,0.0,150.0,Even-Odd,3.0,parity,switch,switch,task_switch_cue_switch,46.0,.,150.0,,,,,,,
269,,html-keyboard-response,269,151727,0.0-3.0-235.0,,"
    <div class=""upperbox"">
      <div class=""center-text"" style=""color:white;"">Even-Odd</div>
    </div>
    <div class=""lowerbox"">
      <div class=""gng_number"">
        <div class=""cue-text""><img class = center src='/static/experiments/cued_task_switching_rdoc/images/3.png'></img></div>
      </div>
    </div>
  ",,test_trial,1500.0,,test,0.0,1000.0,Even-Odd,3.0,parity,switch,switch,task_switch_cue_switch,46.0,.,150.0,"[',', '.']",0,,,,,
270,,html-keyboard-response,270,151916,0.0-3.0-236.0,,<div class = upperbox><div class = fixation>+</div></div><div class = lowerbox><div class = fixation>+</div></div>,,test_ITI,183.9062687062174,,test,0.0,183.9062687062174,,,,,,,,,,,,"{'min': 0, 'max': 5, 'mean': 0.5}",,,,
271,,call-function,271,151916,0.0-3.0-237.0,,,,set_stims,,,,,,,,,,,,,,,,,,,,,
272,,html-keyboard-response,272,152419,0.0-3.0-238.0,,<div class = upperbox><div class = fixation>+</div></div><div class = lowerbox><div class = fixation>+</div></div>,,test_fixation,500.0,,test,0.0,500.0,,,,,,,,,,,,,,,,
273,,html-keyboard-response,273,152576,0.0-3.0-239.0,,"
    <div class=""upperbox"">
      <div class=""center-text"" style=""color:white;"">Even-Odd</div>
    </div>
    <div class=""lowerbox"">
      <div class=""fixation"">+</div>
    </div>
  ",,test_cue,150.0,,test,0.0,150.0,Even-Odd,6.0,parity,stay,stay,task_stay_cue_stay,47.0,",",150.0,,,,,,,
274,,html-keyboard-response,274,154083,0.0-3.0-240.0,,"
    <div class=""upperbox"">
      <div class=""center-text"" style=""color:white;"">Even-Odd</div>
    </div>
    <div class=""lowerbox"">
      <div class=""gng_number"">
        <div class=""cue-text""><img class = center src='/static/experiments/cued_task_switching_rdoc/images/6.png'></img></div>
      </div>
    </div>
  ",,test_trial,1500.0,,test,0.0,1000.0,Even-Odd,6.0,parity,stay,stay,task_stay_cue_stay,47.0,",",150.0,"[',', '.']",0,,,,,
275,,html-keyboard-response,275,154829,0.0-3.0-241.0,,<div class = upperbox><div class = fixation>+</div></div><div class = lowerbox><div class = fixation>+</div></div>,,test_ITI,743.9027416837438,,test,0.0,743.9027416837438,,,,,,,,,,,,"{'min': 0, 'max': 5, 'mean': 0.5}",,,,
276,,call-function,276,154830,0.0-3.0-242.0,,,,set_stims,,,,,,,,,,,,,,,,,,,,,
277,,html-keyboard-response,277,155334,0.0-3.0-243.0,,<div class = upperbox><div class = fixation>+</div></div><div class = lowerbox><div class = fixation>+</div></div>,,test_fixation,500.0,,test,0.0,500.0,,,,,,,,,,,,,,,,
278,,html-keyboard-response,278,155490,0.0-3.0-244.0,,"
    <div class=""upperbox"">
      <div class=""center-text"" style=""color:white;"">High-Low</div>
    </div>
    <div class=""lowerbox"">
      <div class=""fixation"">+</div>
    </div>
  ",,test_cue,150.0,,test,0.0,150.0,High-Low,3.0,magnitude,switch,switch,task_switch_cue_switch,48.0,.,150.0,,,,,,,
279,,html-keyboard-response,279,156996,0.0-3.0-245.0,,"
    <div class=""upperbox"">
      <div class=""center-text"" style=""color:white;"">High-Low</div>
    </div>
    <div class=""lowerbox"">
      <div class=""gng_number"">
        <div class=""cue-text""><img class = center src='/static/experiments/cued_task_switching_rdoc/images/3.png'></img></div>
      </div>
    </div>
  ",,test_trial,1500.0,,test,0.0,1000.0,High-Low,3.0,magnitude,switch,switch,task_switch_cue_switch,48.0,.,150.0,"[',', '.']",0,,,,,
280,,html-keyboard-response,280,157120,0.0-3.0-246.0,,<div class = upperbox><div class = fixation>+</div></div><div class = lowerbox><div class = fixation>+</div></div>,,test_ITI,122.32238924509181,,test,0.0,122.32238924509181,,,,,,,,,,,,"{'min': 0, 'max': 5, 'mean': 0.5}",,,,
281,,call-function,281,157120,0.0-3.0-247.0,,,,set_stims,,,,,,,,,,,,,,,,,,,,,
282,,html-keyboard-response,282,157625,0.0-3.0-248.0,,<div class = upperbox><div class = fixation>+</div></div><div class = lowerbox><div class = fixation>+</div></div>,,test_fixation,500.0,,test,0.0,500.0,,,,,,,,,,,,,,,,
283,,html-keyboard-response,283,157782,0.0-3.0-249.0,,"
    <div class=""upperbox"">
      <div class=""center-text"" style=""color:white;"">Even-Odd</div>
    </div>
    <div class=""lowerbox"">
      <div class=""fixation"">+</div>
    </div>
  ",,test_cue,150.0,,test,0.0,150.0,Even-Odd,9.0,parity,switch,switch,task_switch_cue_switch,49.0,.,150.0,,,,,,,
284,,html-keyboard-response,284,159288,0.0-3.0-250.0,678.0,"
    <div class=""upperbox"">
      <div class=""center-text"" style=""color:white;"">Even-Odd</div>
    </div>
    <div class=""lowerbox"">
      <div class=""gng_number"">
        <div class=""cue-text""><img class = center src='/static/experiments/cued_task_switching_rdoc/images/9.png'></img></div>
      </div>
    </div>
  ",.,test_trial,1500.0,,test,0.0,1000.0,Even-Odd,9.0,parity,switch,switch,task_switch_cue_switch,49.0,.,150.0,"[',', '.']",1,,,,,
285,,html-keyboard-response,285,159389,0.0-3.0-251.0,,<div class = upperbox><div class = fixation>+</div></div><div class = lowerbox><div class = fixation>+</div></div>,,test_ITI,97.35144103326036,,test,0.0,97.35144103326036,,,,,,,,,,,,"{'min': 0, 'max': 5, 'mean': 0.5}",,,,
286,,call-function,286,159390,0.0-3.0-252.0,,,,set_stims,,,,,,,,,,,,,,,,,,,,,
287,,html-keyboard-response,287,159894,0.0-3.0-253.0,,<div class = upperbox><div class = fixation>+</div></div><div class = lowerbox><div class = fixation>+</div></div>,,test_fixation,500.0,,test,0.0,500.0,,,,,,,,,,,,,,,,
288,,html-keyboard-response,288,160049,0.0-3.0-254.0,,"
    <div class=""upperbox"">
      <div class=""center-text"" style=""color:white;"">Even-Odd</div>
    </div>
    <div class=""lowerbox"">
      <div class=""fixation"">+</div>
    </div>
  ",,test_cue,150.0,,test,0.0,150.0,Even-Odd,3.0,parity,stay,stay,task_stay_cue_stay,50.0,.,150.0,,,,,,,
289,,html-keyboard-response,289,161556,0.0-3.0-255.0,747.0,"
    <div class=""upperbox"">
      <div class=""center-text"" style=""color:white;"">Even-Odd</div>
    </div>
    <div class=""lowerbox"">
      <div class=""gng_number"">
        <div class=""cue-text""><img class = center src='/static/experiments/cued_task_switching_rdoc/images/3.png'></img></div>
      </div>
    </div>
  ",.,test_trial,1500.0,,test,0.0,1000.0,Even-Odd,3.0,parity,stay,stay,task_stay_cue_stay,50.0,.,150.0,"[',', '.']",1,,,,,
290,,html-keyboard-response,290,162332,0.0-3.0-256.0,,<div class = upperbox><div class = fixation>+</div></div><div class = lowerbox><div class = fixation>+</div></div>,,test_ITI,769.9640121304628,,test,0.0,769.9640121304628,,,,,,,,,,,,"{'min': 0, 'max': 5, 'mean': 0.5}",,,,
291,,call-function,291,162333,0.0-3.0-257.0,,,,set_stims,,,,,,,,,,,,,,,,,,,,,
292,,html-keyboard-response,292,162837,0.0-3.0-258.0,,<div class = upperbox><div class = fixation>+</div></div><div class = lowerbox><div class = fixation>+</div></div>,,test_fixation,500.0,,test,0.0,500.0,,,,,,,,,,,,,,,,
293,,html-keyboard-response,293,162994,0.0-3.0-259.0,,"
    <div class=""upperbox"">
      <div class=""center-text"" style=""color:white;"">Even-Odd</div>
    </div>
    <div class=""lowerbox"">
      <div class=""fixation"">+</div>
    </div>
  ",,test_cue,150.0,,test,0.0,150.0,Even-Odd,1.0,parity,stay,stay,task_stay_cue_stay,51.0,.,150.0,,,,,,,
294,,html-keyboard-response,294,164501,0.0-3.0-260.0,,"
    <div class=""upperbox"">
      <div class=""center-text"" style=""color:white;"">Even-Odd</div>
    </div>
    <div class=""lowerbox"">
      <div class=""gng_number"">
        <div class=""cue-text""><img class = center src='/static/experiments/cued_task_switching_rdoc/images/1.png'></img></div>
      </div>
    </div>
  ",,test_trial,1500.0,,test,0.0,1000.0,Even-Odd,1.0,parity,stay,stay,task_stay_cue_stay,51.0,.,150.0,"[',', '.']",0,,,,,
295,,html-keyboard-response,295,164559,0.0-3.0-261.0,,<div class = upperbox><div class = fixation>+</div></div><div class = lowerbox><div class = fixation>+</div></div>,,test_ITI,57.18181653001287,,test,0.0,57.18181653001287,,,,,,,,,,,,"{'min': 0, 'max': 5, 'mean': 0.5}",,,,
296,,call-function,296,164559,0.0-3.0-262.0,,,,set_stims,,,,,,,,,,,,,,,,,,,,,
297,,html-keyboard-response,297,165063,0.0-3.0-263.0,,<div class = upperbox><div class = fixation>+</div></div><div class = lowerbox><div class = fixation>+</div></div>,,test_fixation,500.0,,test,0.0,500.0,,,,,,,,,,,,,,,,
298,,html-keyboard-response,298,165219,0.0-3.0-264.0,,"
    <div class=""upperbox"">
      <div class=""center-text"" style=""color:white;"">Magnitude</div>
    </div>
    <div class=""lowerbox"">
      <div class=""fixation"">+</div>
    </div>
  ",,test_cue,150.0,,test,0.0,150.0,Magnitude,7.0,magnitude,switch,switch,task_switch_cue_switch,52.0,",",150.0,,,,,,,
299,,html-keyboard-response,299,166726,0.0-3.0-265.0,,"
    <div class=""upperbox"">
      <div class=""center-text"" style=""color:white;"">Magnitude</div>
    </div>
    <div class=""lowerbox"">
      <div class=""gng_number"">
        <div class=""cue-text""><img class = center src='/static/experiments/cued_task_switching_rdoc/images/7.png'></img></div>
      </div>
    </div>
  ",,test_trial,1500.0,,test,0.0,1000.0,Magnitude,7.0,magnitude,switch,switch,task_switch_cue_switch,52.0,",",150.0,"[',', '.']",0,,,,,
300,,html-keyboard-response,300,168050,0.0-3.0-266.0,,<div class = upperbox><div class = fixation>+</div></div><div class = lowerbox><div class = fixation>+</div></div>,,test_ITI,1321.3984221533844,,test,0.0,1321.3984221533844,,,,,,,,,,,,"{'min': 0, 'max': 5, 'mean': 0.5}",,,,
301,,call-function,301,168051,0.0-3.0-267.0,,,,set_stims,,,,,,,,,,,,,,,,,,,,,
302,,html-keyboard-response,302,168554,0.0-3.0-268.0,,<div class = upperbox><div class = fixation>+</div></div><div class = lowerbox><div class = fixation>+</div></div>,,test_fixation,500.0,,test,0.0,500.0,,,,,,,,,,,,,,,,
303,,html-keyboard-response,303,168711,0.0-3.0-269.0,,"
    <div class=""upperbox"">
      <div class=""center-text"" style=""color:white;"">High-Low</div>
    </div>
    <div class=""lowerbox"">
      <div class=""fixation"">+</div>
    </div>
  ",,test_cue,150.0,,test,0.0,150.0,High-Low,2.0,magnitude,stay,switch,task_stay_cue_switch,53.0,.,150.0,,,,,,,
304,,html-keyboard-response,304,170218,0.0-3.0-270.0,,"
    <div class=""upperbox"">
      <div class=""center-text"" style=""color:white;"">High-Low</div>
    </div>
    <div class=""lowerbox"">
      <div class=""gng_number"">
        <div class=""cue-text""><img class = center src='/static/experiments/cued_task_switching_rdoc/images/2.png'></img></div>
      </div>
    </div>
  ",,test_trial,1500.0,,test,0.0,1000.0,High-Low,2.0,magnitude,stay,switch,task_stay_cue_switch,53.0,.,150.0,"[',', '.']",0,,,,,
305,,html-keyboard-response,305,170719,0.0-3.0-271.0,,<div class = upperbox><div class = fixation>+</div></div><div class = lowerbox><div class = fixation>+</div></div>,,test_ITI,497.9218462733411,,test,0.0,497.9218462733411,,,,,,,,,,,,"{'min': 0, 'max': 5, 'mean': 0.5}",,,,
306,,call-function,306,170720,0.0-3.0-272.0,,,,set_stims,,,,,,,,,,,,,,,,,,,,,
307,,html-keyboard-response,307,171224,0.0-3.0-273.0,,<div class = upperbox><div class = fixation>+</div></div><div class = lowerbox><div class = fixation>+</div></div>,,test_fixation,500.0,,test,0.0,500.0,,,,,,,,,,,,,,,,
308,,html-keyboard-response,308,171379,0.0-3.0-274.0,,"
    <div class=""upperbox"">
      <div class=""center-text"" style=""color:white;"">High-Low</div>
    </div>
    <div class=""lowerbox"">
      <div class=""fixation"">+</div>
    </div>
  ",,test_cue,150.0,,test,0.0,150.0,High-Low,9.0,magnitude,stay,stay,task_stay_cue_stay,54.0,",",150.0,,,,,,,
309,,html-keyboard-response,309,172885,0.0-3.0-275.0,,"
    <div class=""upperbox"">
      <div class=""center-text"" style=""color:white;"">High-Low</div>
    </div>
    <div class=""lowerbox"">
      <div class=""gng_number"">
        <div class=""cue-text""><img class = center src='/static/experiments/cued_task_switching_rdoc/images/9.png'></img></div>
      </div>
    </div>
  ",,test_trial,1500.0,,test,0.0,1000.0,High-Low,9.0,magnitude,stay,stay,task_stay_cue_stay,54.0,",",150.0,"[',', '.']",0,,,,,
310,,html-keyboard-response,310,173718,0.0-3.0-276.0,,<div class = upperbox><div class = fixation>+</div></div><div class = lowerbox><div class = fixation>+</div></div>,,test_ITI,826.3397277453731,,test,0.0,826.3397277453731,,,,,,,,,,,,"{'min': 0, 'max': 5, 'mean': 0.5}",,,,
311,,call-function,311,173719,0.0-3.0-277.0,,,,set_stims,,,,,,,,,,,,,,,,,,,,,
312,,html-keyboard-response,312,174221,0.0-3.0-278.0,,<div class = upperbox><div class = fixation>+</div></div><div class = lowerbox><div class = fixation>+</div></div>,,test_fixation,500.0,,test,0.0,500.0,,,,,,,,,,,,,,,,
313,,html-keyboard-response,313,174378,0.0-3.0-279.0,,"
    <div class=""upperbox"">
      <div class=""center-text"" style=""color:white;"">High-Low</div>
    </div>
    <div class=""lowerbox"">
      <div class=""fixation"">+</div>
    </div>
  ",,test_cue,150.0,,test,0.0,150.0,High-Low,3.0,magnitude,stay,stay,task_stay_cue_stay,55.0,.,150.0,,,,,,,
314,,html-keyboard-response,314,175884,0.0-3.0-280.0,,"
    <div class=""upperbox"">
      <div class=""center-text"" style=""color:white;"">High-Low</div>
    </div>
    <div class=""lowerbox"">
      <div class=""gng_number"">
        <div class=""cue-text""><img class = center src='/static/experiments/cued_task_switching_rdoc/images/3.png'></img></div>
      </div>
    </div>
  ",,test_trial,1500.0,,test,0.0,1000.0,High-Low,3.0,magnitude,stay,stay,task_stay_cue_stay,55.0,.,150.0,"[',', '.']",0,,,,,
315,,html-keyboard-response,315,175926,0.0-3.0-281.0,,<div class = upperbox><div class = fixation>+</div></div><div class = lowerbox><div class = fixation>+</div></div>,,test_ITI,35.17005752275984,,test,0.0,35.17005752275984,,,,,,,,,,,,"{'min': 0, 'max': 5, 'mean': 0.5}",,,,
316,,call-function,316,175926,0.0-3.0-282.0,,,,set_stims,,,,,,,,,,,,,,,,,,,,,
317,,html-keyboard-response,317,176429,0.0-3.0-283.0,,<div class = upperbox><div class = fixation>+</div></div><div class = lowerbox><div class = fixation>+</div></div>,,test_fixation,500.0,,test,0.0,500.0,,,,,,,,,,,,,,,,
318,,html-keyboard-response,318,176585,0.0-3.0-284.0,,"
    <div class=""upperbox"">
      <div class=""center-text"" style=""color:white;"">Magnitude</div>
    </div>
    <div class=""lowerbox"">
      <div class=""fixation"">+</div>
    </div>
  ",,test_cue,150.0,,test,0.0,150.0,Magnitude,7.0,magnitude,stay,switch,task_stay_cue_switch,56.0,",",150.0,,,,,,,
319,,html-keyboard-response,319,178093,0.0-3.0-285.0,,"
    <div class=""upperbox"">
      <div class=""center-text"" style=""color:white;"">Magnitude</div>
    </div>
    <div class=""lowerbox"">
      <div class=""gng_number"">
        <div class=""cue-text""><img class = center src='/static/experiments/cued_task_switching_rdoc/images/7.png'></img></div>
      </div>
    </div>
  ",,test_trial,1500.0,,test,0.0,1000.0,Magnitude,7.0,magnitude,stay,switch,task_stay_cue_switch,56.0,",",150.0,"[',', '.']",0,,,,,
320,,html-keyboard-response,320,179192,0.0-3.0-286.0,,<div class = upperbox><div class = fixation>+</div></div><div class = lowerbox><div class = fixation>+</div></div>,,test_ITI,1093.4552275450756,,test,0.0,1093.4552275450756,,,,,,,,,,,,"{'min': 0, 'max': 5, 'mean': 0.5}",,,,
321,,call-function,321,179193,0.0-3.0-287.0,,,,set_stims,,,,,,,,,,,,,,,,,,,,,
322,,html-keyboard-response,322,179698,0.0-3.0-288.0,,<div class = upperbox><div class = fixation>+</div></div><div class = lowerbox><div class = fixation>+</div></div>,,test_fixation,500.0,,test,0.0,500.0,,,,,,,,,,,,,,,,
323,,html-keyboard-response,323,179854,0.0-3.0-289.0,,"
    <div class=""upperbox"">
      <div class=""center-text"" style=""color:white;"">Even-Odd</div>
    </div>
    <div class=""lowerbox"">
      <div class=""fixation"">+</div>
    </div>
  ",,test_cue,150.0,,test,0.0,150.0,Even-Odd,2.0,parity,switch,switch,task_switch_cue_switch,57.0,",",150.0,,,,,,,
324,,html-keyboard-response,324,181361,0.0-3.0-290.0,,"
    <div class=""upperbox"">
      <div class=""center-text"" style=""color:white;"">Even-Odd</div>
    </div>
    <div class=""lowerbox"">
      <div class=""gng_number"">
        <div class=""cue-text""><img class = center src='/static/experiments/cued_task_switching_rdoc/images/2.png'></img></div>
      </div>
    </div>
  ",,test_trial,1500.0,,test,0.0,1000.0,Even-Odd,2.0,parity,switch,switch,task_switch_cue_switch,57.0,",",150.0,"[',', '.']",0,,,,,
325,,html-keyboard-response,325,181910,0.0-3.0-291.0,,<div class = upperbox><div class = fixation>+</div></div><div class = lowerbox><div class = fixation>+</div></div>,,test_ITI,546.0645280523906,,test,0.0,546.0645280523906,,,,,,,,,,,,"{'min': 0, 'max': 5, 'mean': 0.5}",,,,
326,,call-function,326,181910,0.0-3.0-292.0,,,,set_stims,,,,,,,,,,,,,,,,,,,,,
327,,html-keyboard-response,327,182414,0.0-3.0-293.0,,<div class = upperbox><div class = fixation>+</div></div><div class = lowerbox><div class = fixation>+</div></div>,,test_fixation,500.0,,test,0.0,500.0,,,,,,,,,,,,,,,,
328,,html-keyboard-response,328,182571,0.0-3.0-294.0,,"
    <div class=""upperbox"">
      <div class=""center-text"" style=""color:white;"">Even-Odd</div>
    </div>
    <div class=""lowerbox"">
      <div class=""fixation"">+</div>
    </div>
  ",,test_cue,150.0,,test,0.0,150.0,Even-Odd,6.0,parity,stay,stay,task_stay_cue_stay,58.0,",",150.0,,,,,,,
329,,html-keyboard-response,329,184077,0.0-3.0-295.0,,"
    <div class=""upperbox"">
      <div class=""center-text"" style=""color:white;"">Even-Odd</div>
    </div>
    <div class=""lowerbox"">
      <div class=""gng_number"">
        <div class=""cue-text""><img class = center src='/static/experiments/cued_task_switching_rdoc/images/6.png'></img></div>
      </div>
    </div>
  ",,test_trial,1500.0,,test,0.0,1000.0,Even-Odd,6.0,parity,stay,stay,task_stay_cue_stay,58.0,",",150.0,"[',', '.']",0,,,,,
330,,html-keyboard-response,330,186769,0.0-3.0-296.0,,<div class = upperbox><div class = fixation>+</div></div><div class = lowerbox><div class = fixation>+</div></div>,,test_ITI,2685.8402490354515,,test,0.0,2685.8402490354515,,,,,,,,,,,,"{'min': 0, 'max': 5, 'mean': 0.5}",,,,
331,,call-function,331,186769,0.0-3.0-297.0,,,,set_stims,,,,,,,,,,,,,,,,,,,,,
332,,html-keyboard-response,332,187272,0.0-3.0-298.0,,<div class = upperbox><div class = fixation>+</div></div><div class = lowerbox><div class = fixation>+</div></div>,,test_fixation,500.0,,test,0.0,500.0,,,,,,,,,,,,,,,,
333,,html-keyboard-response,333,187427,0.0-3.0-299.0,,"
    <div class=""upperbox"">
      <div class=""center-text"" style=""color:white;"">Parity</div>
    </div>
    <div class=""lowerbox"">
      <div class=""fixation"">+</div>
    </div>
  ",,test_cue,150.0,,test,0.0,150.0,Parity,4.0,parity,stay,switch,task_stay_cue_switch,59.0,",",150.0,,,,,,,
334,,html-keyboard-response,334,188931,0.0-3.0-300.0,,"
    <div class=""upperbox"">
      <div class=""center-text"" style=""color:white;"">Parity</div>
    </div>
    <div class=""lowerbox"">
      <div class=""gng_number"">
        <div class=""cue-text""><img class = center src='/static/experiments/cued_task_switching_rdoc/images/4.png'></img></div>
      </div>
    </div>
  ",,test_trial,1500.0,,test,0.0,1000.0,Parity,4.0,parity,stay,switch,task_stay_cue_switch,59.0,",",150.0,"[',', '.']",0,,,,,
335,,html-keyboard-response,335,190023,0.0-3.0-301.0,,<div class = upperbox><div class = fixation>+</div></div><div class = lowerbox><div class = fixation>+</div></div>,,test_ITI,1086.0796783913163,,test,0.0,1086.0796783913163,,,,,,,,,,,,"{'min': 0, 'max': 5, 'mean': 0.5}",,,,
336,,call-function,336,190024,0.0-3.0-302.0,,,,set_stims,,,,,,,,,,,,,,,,,,,,,
337,,html-keyboard-response,337,190529,0.0-3.0-303.0,,<div class = upperbox><div class = fixation>+</div></div><div class = lowerbox><div class = fixation>+</div></div>,,test_fixation,500.0,,test,0.0,500.0,,,,,,,,,,,,,,,,
338,,html-keyboard-response,338,190685,0.0-3.0-304.0,,"
    <div class=""upperbox"">
      <div class=""center-text"" style=""color:white;"">Even-Odd</div>
    </div>
    <div class=""lowerbox"">
      <div class=""fixation"">+</div>
    </div>
  ",,test_cue,150.0,,test,0.0,150.0,Even-Odd,2.0,parity,stay,switch,task_stay_cue_switch,60.0,",",150.0,,,,,,,
339,,html-keyboard-response,339,192191,0.0-3.0-305.0,,"
    <div class=""upperbox"">
      <div class=""center-text"" style=""color:white;"">Even-Odd</div>
    </div>
    <div class=""lowerbox"">
      <div class=""gng_number"">
        <div class=""cue-text""><img class = center src='/static/experiments/cued_task_switching_rdoc/images/2.png'></img></div>
      </div>
    </div>
  ",,test_trial,1500.0,,test,0.0,1000.0,Even-Odd,2.0,parity,stay,switch,task_stay_cue_switch,60.0,",",150.0,"[',', '.']",0,,,,,
340,,html-keyboard-response,340,192221,0.0-3.0-306.0,,<div class = upperbox><div class = fixation>+</div></div><div class = lowerbox><div class = fixation>+</div></div>,,test_ITI,25.96802991804659,,test,0.0,25.96802991804659,,,,,,,,,,,,"{'min': 0, 'max': 5, 'mean': 0.5}",,,,
341,,call-function,341,192222,0.0-3.0-307.0,,,,set_stims,,,,,,,,,,,,,,,,,,,,,
342,,html-keyboard-response,342,192726,0.0-3.0-308.0,,<div class = upperbox><div class = fixation>+</div></div><div class = lowerbox><div class = fixation>+</div></div>,,test_fixation,500.0,,test,0.0,500.0,,,,,,,,,,,,,,,,
343,,html-keyboard-response,343,192882,0.0-3.0-309.0,,"
    <div class=""upperbox"">
      <div class=""center-text"" style=""color:white;"">Even-Odd</div>
    </div>
    <div class=""lowerbox"">
      <div class=""fixation"">+</div>
    </div>
  ",,test_cue,150.0,,test,0.0,150.0,Even-Odd,9.0,parity,stay,stay,task_stay_cue_stay,61.0,.,150.0,,,,,,,
344,,html-keyboard-response,344,194385,0.0-3.0-310.0,,"
    <div class=""upperbox"">
      <div class=""center-text"" style=""color:white;"">Even-Odd</div>
    </div>
    <div class=""lowerbox"">
      <div class=""gng_number"">
        <div class=""cue-text""><img class = center src='/static/experiments/cued_task_switching_rdoc/images/9.png'></img></div>
      </div>
    </div>
  ",,test_trial,1500.0,,test,0.0,1000.0,Even-Odd,9.0,parity,stay,stay,task_stay_cue_stay,61.0,.,150.0,"[',', '.']",0,,,,,
345,,html-keyboard-response,345,194456,0.0-3.0-311.0,,<div class = upperbox><div class = fixation>+</div></div><div class = lowerbox><div class = fixation>+</div></div>,,test_ITI,67.77937583400174,,test,0.0,67.77937583400174,,,,,,,,,,,,"{'min': 0, 'max': 5, 'mean': 0.5}",,,,
346,,call-function,346,194457,0.0-3.0-312.0,,,,set_stims,,,,,,,,,,,,,,,,,,,,,
347,,html-keyboard-response,347,194963,0.0-3.0-313.0,,<div class = upperbox><div class = fixation>+</div></div><div class = lowerbox><div class = fixation>+</div></div>,,test_fixation,500.0,,test,0.0,500.0,,,,,,,,,,,,,,,,
348,,html-keyboard-response,348,195117,0.0-3.0-314.0,,"
