,success,trial_type,trial_index,time_elapsed,internal_node_id,rt,stimulus,response,trial_id,trial_duration,view_history,exp_stage,stimulus_duration,correct_response,condition,flanker,center_letter,choices,block_num,correct_trial,ITIParams,current_question,current_key_answer,current_block,exp_id,attention_check_percent
0,True,fullscreen,0,1676,0.0-0.0,,,,,,,,,,,,,,,,,,,,,
1,,html-keyboard-response,1,1868,0.0-1.0-0.0,189.0,"<div class = centerbox><p class = center-block-text>
    
  <p class=""center-block-text"">
    Welcome! This experiment will take around 7 minutes.
  </p>
  <p class=""center-block-text"">
    To avoid technical issues, please keep the experiment tab (on Chrome or Firefox) active and in fullscreen mode for the whole duration of each task.
  </p>
  <p class=""center-block-text""> Press <i>enter</i> to begin.</p>

    </p></div>",enter,instruction_feedback,180000.0,,,,,,,,,,,,,,,,
2,,instructions,2,3656,0.0-1.0-1.0,1787.0,,,instructions,,"[{'page_index': 0, 'viewing_time': 1786}]",,,,,,,,,,,,,,,
3,,html-keyboard-response,3,4524,0.0-2.0-0.0,866.0,"<div class = bigbox><div class = picture_box><p class = block-text>
    <div class = centerbox><p class = center-block-text>Press <i>enter</i> to begin practice.</p></div>
    </font></p></div></div>",enter,practice_feedback,60000.0,,practice,,,,,,,,,,,,,,
4,,html-keyboard-response,4,6030,0.0-2.0-1.0,,<div class = centerbox><div class = fixation>+</div></div>,,practice_fixation,500.0,,practice,500.0,,,,,,,,,,,,,
5,,html-keyboard-response,5,7538,0.0-2.0-2.0,703.0,"<div class = bigbox><div class = centerbox><div class = flankerLeft_2><div class = cue-text><img class = center src=""/static/experiments/flanker_rdoc/images/F.png""></img></div></div><div class = flankerLeft_1><div class = cue-text><img class = center src=""/static/experiments/flanker_rdoc/images/F.png""></img></div></div><div class = flankerMiddle><div class = cue-text><img class = center src=""/static/experiments/flanker_rdoc/images/F.png""></img></div></div><div class = flankerRight_1><div class = cue-text><img class = center src=""/static/experiments/flanker_rdoc/images/F.png""></img></div></div><div class = flankerRight_2><div class = cue-text><img class = center src=""/static/experiments/flanker_rdoc/images/F.png""></img></div></div></div></div>",.,practice_trial,1500.0,,practice,1000.0,.,congruent,F,F,"[',', '.']",0.0,1,,,,,,
6,,html-keyboard-response,6,8044,0.0-2.0-3.0,,<div class = fb_box><div class = center-text><font size =20>Correct!</font></div></div>,,practice_feedback,500.0,,practice,500.0,,,,,,,,,,,,,
7,,html-keyboard-response,7,8447,0.0-2.0-4.0,,<div class = centerbox><div class = fixation>+</div></div>,,practice_ITI,400.5777627130834,,practice,400.5777627130834,,,,,,0.0,,"{'min': 0, 'max': 5, 'mean': 0.5}",,,,,
8,,html-keyboard-response,8,8951,0.0-2.0-5.0,,<div class = centerbox><div class = fixation>+</div></div>,,practice_fixation,500.0,,practice,500.0,,,,,,,,,,,,,
9,,html-keyboard-response,9,10458,0.0-2.0-6.0,472.0,"<div class = bigbox><div class = centerbox><div class = flankerLeft_2><div class = cue-text><img class = center src=""/static/experiments/flanker_rdoc/images/H.png""></img></div></div><div class = flankerLeft_1><div class = cue-text><img class = center src=""/static/experiments/flanker_rdoc/images/H.png""></img></div></div><div class = flankerMiddle><div class = cue-text><img class = center src=""/static/experiments/flanker_rdoc/images/H.png""></img></div></div><div class = flankerRight_1><div class = cue-text><img class = center src=""/static/experiments/flanker_rdoc/images/H.png""></img></div></div><div class = flankerRight_2><div class = cue-text><img class = center src=""/static/experiments/flanker_rdoc/images/H.png""></img></div></div></div></div>",",",practice_trial,1500.0,,practice,1000.0,",",congruent,H,H,"[',', '.']",0.0,1,,,,,,
10,,html-keyboard-response,10,10964,0.0-2.0-7.0,,<div class = fb_box><div class = center-text><font size =20>Correct!</font></div></div>,,practice_feedback,500.0,,practice,500.0,,,,,,,,,,,,,
11,,html-keyboard-response,11,11314,0.0-2.0-8.0,,<div class = centerbox><div class = fixation>+</div></div>,,practice_ITI,344.1343169109893,,practice,344.1343169109893,,,,,,0.0,,"{'min': 0, 'max': 5, 'mean': 0.5}",,,,,
12,,html-keyboard-response,12,11819,0.0-2.0-9.0,,<div class = centerbox><div class = fixation>+</div></div>,,practice_fixation,500.0,,practice,500.0,,,,,,,,,,,,,
13,,html-keyboard-response,13,13326,0.0-2.0-10.0,665.0,"<div class = bigbox><div class = centerbox><div class = flankerLeft_2><div class = cue-text><img class = center src=""/static/experiments/flanker_rdoc/images/F.png""></img></div></div><div class = flankerLeft_1><div class = cue-text><img class = center src=""/static/experiments/flanker_rdoc/images/F.png""></img></div></div><div class = flankerMiddle><div class = cue-text><img class = center src=""/static/experiments/flanker_rdoc/images/H.png""></img></div></div><div class = flankerRight_1><div class = cue-text><img class = center src=""/static/experiments/flanker_rdoc/images/F.png""></img></div></div><div class = flankerRight_2><div class = cue-text><img class = center src=""/static/experiments/flanker_rdoc/images/F.png""></img></div></div></div></div>",",",practice_trial,1500.0,,practice,1000.0,",",incongruent,F,H,"[',', '.']",0.0,1,,,,,,
14,,html-keyboard-response,14,13829,0.0-2.0-11.0,,<div class = fb_box><div class = center-text><font size =20>Correct!</font></div></div>,,practice_feedback,500.0,,practice,500.0,,,,,,,,,,,,,
15,,html-keyboard-response,15,14348,0.0-2.0-12.0,,<div class = centerbox><div class = fixation>+</div></div>,,practice_ITI,513.0083044865601,,practice,513.0083044865601,,,,,,0.0,,"{'min': 0, 'max': 5, 'mean': 0.5}",,,,,
16,,html-keyboard-response,16,14853,0.0-2.0-13.0,,<div class = centerbox><div class = fixation>+</div></div>,,practice_fixation,500.0,,practice,500.0,,,,,,,,,,,,,
17,,html-keyboard-response,17,16360,0.0-2.0-14.0,570.0,"<div class = bigbox><div class = centerbox><div class = flankerLeft_2><div class = cue-text><img class = center src=""/static/experiments/flanker_rdoc/images/H.png""></img></div></div><div class = flankerLeft_1><div class = cue-text><img class = center src=""/static/experiments/flanker_rdoc/images/H.png""></img></div></div><div class = flankerMiddle><div class = cue-text><img class = center src=""/static/experiments/flanker_rdoc/images/F.png""></img></div></div><div class = flankerRight_1><div class = cue-text><img class = center src=""/static/experiments/flanker_rdoc/images/H.png""></img></div></div><div class = flankerRight_2><div class = cue-text><img class = center src=""/static/experiments/flanker_rdoc/images/H.png""></img></div></div></div></div>",.,practice_trial,1500.0,,practice,1000.0,.,incongruent,H,F,"[',', '.']",0.0,1,,,,,,
18,,html-keyboard-response,18,16864,0.0-2.0-15.0,,<div class = fb_box><div class = center-text><font size =20>Correct!</font></div></div>,,practice_feedback,500.0,,practice,500.0,,,,,,,,,,,,,
19,,html-keyboard-response,19,17281,0.0-2.0-16.0,,<div class = centerbox><div class = fixation>+</div></div>,,practice_ITI,415.19315977696505,,practice,415.19315977696505,,,,,,0.0,,"{'min': 0, 'max': 5, 'mean': 0.5}",,,,,
20,,html-keyboard-response,20,17936,0.0-3.0-0.0,653.0,"<div class = bigbox><div class = picture_box><p class = block-text>
     <div class=""centerbox"">
        <p class=""center-block-text"">We will now start the test portion.</p>
        <p class=""block-text"">Keep your <b>index finger</b> on the <b>comma key (,)</b> and your <b>middle finger</b> on the <b>period key (.)</b></p>
        <p class=""block-text"">Press <i>enter</i> to continue.</p>
      </div>
    </font></p></div></div>",enter,test_feedback,60000.0,,test,,,,,,,,,,,,,,
21,,html-keyboard-response,21,21196,0.0-3.0-1.0-0.0,2252.0,,x,test_attention_check,,,test,,,,,,,0.0,True,,<p class='block-text'>Press the key for the third to last letter of the English alphabet.</p> <div class=block-text>This screen will advance automatically in 1 minute.</div>,88.0,,,
22,,html-keyboard-response,22,21700,0.0-3.0-2.0,,<div class = centerbox><div class = fixation>+</div></div>,,test_fixation,500.0,,test,500.0,,,,,,,,,,,,,
23,,html-keyboard-response,23,23207,0.0-3.0-3.0,632.0,"<div class = bigbox><div class = centerbox><div class = flankerLeft_2><div class = cue-text><img class = center src=""/static/experiments/flanker_rdoc/images/F.png""></img></div></div><div class = flankerLeft_1><div class = cue-text><img class = center src=""/static/experiments/flanker_rdoc/images/F.png""></img></div></div><div class = flankerMiddle><div class = cue-text><img class = center src=""/static/experiments/flanker_rdoc/images/H.png""></img></div></div><div class = flankerRight_1><div class = cue-text><img class = center src=""/static/experiments/flanker_rdoc/images/F.png""></img></div></div><div class = flankerRight_2><div class = cue-text><img class = center src=""/static/experiments/flanker_rdoc/images/F.png""></img></div></div></div></div>",",",test_trial,1000.0,,test,1500.0,",",incongruent,F,H,"[',', '.']",0.0,1,,,,0.0,,
24,,html-keyboard-response,24,23222,0.0-3.0-4.0,,<div class = centerbox><div class = fixation>+</div></div>,,test_ITI,13.870821987356209,,test,13.870821987356209,,,,,,0.0,,"{'min': 0, 'max': 5, 'mean': 0.5}",,,,,
25,,html-keyboard-response,25,23726,0.0-3.0-5.0,,<div class = centerbox><div class = fixation>+</div></div>,,test_fixation,500.0,,test,500.0,,,,,,,,,,,,,
26,,html-keyboard-response,26,25229,0.0-3.0-6.0,841.0,"<div class = bigbox><div class = centerbox><div class = flankerLeft_2><div class = cue-text><img class = center src=""/static/experiments/flanker_rdoc/images/H.png""></img></div></div><div class = flankerLeft_1><div class = cue-text><img class = center src=""/static/experiments/flanker_rdoc/images/H.png""></img></div></div><div class = flankerMiddle><div class = cue-text><img class = center src=""/static/experiments/flanker_rdoc/images/H.png""></img></div></div><div class = flankerRight_1><div class = cue-text><img class = center src=""/static/experiments/flanker_rdoc/images/H.png""></img></div></div><div class = flankerRight_2><div class = cue-text><img class = center src=""/static/experiments/flanker_rdoc/images/H.png""></img></div></div></div></div>",",",test_trial,1000.0,,test,1500.0,",",congruent,H,H,"[',', '.']",0.0,1,,,,0.0,,
27,,html-keyboard-response,27,25473,0.0-3.0-7.0,,<div class = centerbox><div class = fixation>+</div></div>,,test_ITI,238.72869350380023,,test,238.72869350380023,,,,,,0.0,,"{'min': 0, 'max': 5, 'mean': 0.5}",,,,,
28,,html-keyboard-response,28,25977,0.0-3.0-8.0,,<div class = centerbox><div class = fixation>+</div></div>,,test_fixation,500.0,,test,500.0,,,,,,,,,,,,,
29,,html-keyboard-response,29,27485,0.0-3.0-9.0,733.0,"<div class = bigbox><div class = centerbox><div class = flankerLeft_2><div class = cue-text><img class = center src=""/static/experiments/flanker_rdoc/images/H.png""></img></div></div><div class = flankerLeft_1><div class = cue-text><img class = center src=""/static/experiments/flanker_rdoc/images/H.png""></img></div></div><div class = flankerMiddle><div class = cue-text><img class = center src=""/static/experiments/flanker_rdoc/images/F.png""></img></div></div><div class = flankerRight_1><div class = cue-text><img class = center src=""/static/experiments/flanker_rdoc/images/H.png""></img></div></div><div class = flankerRight_2><div class = cue-text><img class = center src=""/static/experiments/flanker_rdoc/images/H.png""></img></div></div></div></div>",.,test_trial,1000.0,,test,1500.0,.,incongruent,H,F,"[',', '.']",0.0,1,,,,0.0,,
30,,html-keyboard-response,30,30861,0.0-3.0-10.0,,<div class = centerbox><div class = fixation>+</div></div>,,test_ITI,3370.1695248960095,,test,3370.1695248960095,,,,,,0.0,,"{'min': 0, 'max': 5, 'mean': 0.5}",,,,,
31,,html-keyboard-response,31,31365,0.0-3.0-11.0,,<div class = centerbox><div class = fixation>+</div></div>,,test_fixation,500.0,,test,500.0,,,,,,,,,,,,,
32,,html-keyboard-response,32,32872,0.0-3.0-12.0,449.0,"<div class = bigbox><div class = centerbox><div class = flankerLeft_2><div class = cue-text><img class = center src=""/static/experiments/flanker_rdoc/images/F.png""></img></div></div><div class = flankerLeft_1><div class = cue-text><img class = center src=""/static/experiments/flanker_rdoc/images/F.png""></img></div></div><div class = flankerMiddle><div class = cue-text><img class = center src=""/static/experiments/flanker_rdoc/images/H.png""></img></div></div><div class = flankerRight_1><div class = cue-text><img class = center src=""/static/experiments/flanker_rdoc/images/F.png""></img></div></div><div class = flankerRight_2><div class = cue-text><img class = center src=""/static/experiments/flanker_rdoc/images/F.png""></img></div></div></div></div>",.,test_trial,1000.0,,test,1500.0,",",incongruent,F,H,"[',', '.']",0.0,0,,,,0.0,,
33,,html-keyboard-response,33,33394,0.0-3.0-13.0,,<div class = centerbox><div class = fixation>+</div></div>,,test_ITI,516.5053188884768,,test,516.5053188884768,,,,,,0.0,,"{'min': 0, 'max': 5, 'mean': 0.5}",,,,,
34,,html-keyboard-response,34,33899,0.0-3.0-14.0,,<div class = centerbox><div class = fixation>+</div></div>,,test_fixation,500.0,,test,500.0,,,,,,,,,,,,,
35,,html-keyboard-response,35,35406,0.0-3.0-15.0,,"<div class = bigbox><div class = centerbox><div class = flankerLeft_2><div class = cue-text><img class = center src=""/static/experiments/flanker_rdoc/images/H.png""></img></div></div><div class = flankerLeft_1><div class = cue-text><img class = center src=""/static/experiments/flanker_rdoc/images/H.png""></img></div></div><div class = flankerMiddle><div class = cue-text><img class = center src=""/static/experiments/flanker_rdoc/images/F.png""></img></div></div><div class = flankerRight_1><div class = cue-text><img class = center src=""/static/experiments/flanker_rdoc/images/H.png""></img></div></div><div class = flankerRight_2><div class = cue-text><img class = center src=""/static/experiments/flanker_rdoc/images/H.png""></img></div></div></div></div>",,test_trial,1000.0,,test,1500.0,.,incongruent,H,F,"[',', '.']",0.0,0,,,,0.0,,
36,,html-keyboard-response,36,35497,0.0-3.0-16.0,,<div class = centerbox><div class = fixation>+</div></div>,,test_ITI,89.93212873191462,,test,89.93212873191462,,,,,,0.0,,"{'min': 0, 'max': 5, 'mean': 0.5}",,,,,
37,,html-keyboard-response,37,36001,0.0-3.0-17.0,,<div class = centerbox><div class = fixation>+</div></div>,,test_fixation,500.0,,test,500.0,,,,,,,,,,,,,
38,,html-keyboard-response,38,37508,0.0-3.0-18.0,,"<div class = bigbox><div class = centerbox><div class = flankerLeft_2><div class = cue-text><img class = center src=""/static/experiments/flanker_rdoc/images/H.png""></img></div></div><div class = flankerLeft_1><div class = cue-text><img class = center src=""/static/experiments/flanker_rdoc/images/H.png""></img></div></div><div class = flankerMiddle><div class = cue-text><img class = center src=""/static/experiments/flanker_rdoc/images/F.png""></img></div></div><div class = flankerRight_1><div class = cue-text><img class = center src=""/static/experiments/flanker_rdoc/images/H.png""></img></div></div><div class = flankerRight_2><div class = cue-text><img class = center src=""/static/experiments/flanker_rdoc/images/H.png""></img></div></div></div></div>",,test_trial,1000.0,,test,1500.0,.,incongruent,H,F,"[',', '.']",0.0,0,,,,0.0,,
39,,html-keyboard-response,39,37849,0.0-3.0-19.0,,<div class = centerbox><div class = fixation>+</div></div>,,test_ITI,336.2357208396299,,test,336.2357208396299,,,,,,0.0,,"{'min': 0, 'max': 5, 'mean': 0.5}",,,,,
40,,html-keyboard-response,40,38352,0.0-3.0-20.0,,<div class = centerbox><div class = fixation>+</div></div>,,test_fixation,500.0,,test,500.0,,,,,,,,,,,,,
41,,html-keyboard-response,41,39860,0.0-3.0-21.0,,"<div class = bigbox><div class = centerbox><div class = flankerLeft_2><div class = cue-text><img class = center src=""/static/experiments/flanker_rdoc/images/H.png""></img></div></div><div class = flankerLeft_1><div class = cue-text><img class = center src=""/static/experiments/flanker_rdoc/images/H.png""></img></div></div><div class = flankerMiddle><div class = cue-text><img class = center src=""/static/experiments/flanker_rdoc/images/F.png""></img></div></div><div class = flankerRight_1><div class = cue-text><img class = center src=""/static/experiments/flanker_rdoc/images/H.png""></img></div></div><div class = flankerRight_2><div class = cue-text><img class = center src=""/static/experiments/flanker_rdoc/images/H.png""></img></div></div></div></div>",,test_trial,1000.0,,test,1500.0,.,incongruent,H,F,"[',', '.']",0.0,0,,,,0.0,,
42,,html-keyboard-response,42,40596,0.0-3.0-22.0,,<div class = centerbox><div class = fixation>+</div></div>,,test_ITI,729.444815787761,,test,729.444815787761,,,,,,0.0,,"{'min': 0, 'max': 5, 'mean': 0.5}",,,,,
43,,html-keyboard-response,43,41101,0.0-3.0-23.0,,<div class = centerbox><div class = fixation>+</div></div>,,test_fixation,500.0,,test,500.0,,,,,,,,,,,,,
44,,html-keyboard-response,44,42608,0.0-3.0-24.0,,"<div class = bigbox><div class = centerbox><div class = flankerLeft_2><div class = cue-text><img class = center src=""/static/experiments/flanker_rdoc/images/H.png""></img></div></div><div class = flankerLeft_1><div class = cue-text><img class = center src=""/static/experiments/flanker_rdoc/images/H.png""></img></div></div><div class = flankerMiddle><div class = cue-text><img class = center src=""/static/experiments/flanker_rdoc/images/H.png""></img></div></div><div class = flankerRight_1><div class = cue-text><img class = center src=""/static/experiments/flanker_rdoc/images/H.png""></img></div></div><div class = flankerRight_2><div class = cue-text><img class = center src=""/static/experiments/flanker_rdoc/images/H.png""></img></div></div></div></div>",,test_trial,1000.0,,test,1500.0,",",congruent,H,H,"[',', '.']",0.0,0,,,,0.0,,
45,,html-keyboard-response,45,42730,0.0-3.0-25.0,,<div class = centerbox><div class = fixation>+</div></div>,,test_ITI,118.04385220678556,,test,118.04385220678556,,,,,,0.0,,"{'min': 0, 'max': 5, 'mean': 0.5}",,,,,
46,,html-keyboard-response,46,43236,0.0-3.0-26.0,,<div class = centerbox><div class = fixation>+</div></div>,,test_fixation,500.0,,test,500.0,,,,,,,,,,,,,
47,,html-keyboard-response,47,44743,0.0-3.0-27.0,,"<div class = bigbox><div class = centerbox><div class = flankerLeft_2><div class = cue-text><img class = center src=""/static/experiments/flanker_rdoc/images/F.png""></img></div></div><div class = flankerLeft_1><div class = cue-text><img class = center src=""/static/experiments/flanker_rdoc/images/F.png""></img></div></div><div class = flankerMiddle><div class = cue-text><img class = center src=""/static/experiments/flanker_rdoc/images/H.png""></img></div></div><div class = flankerRight_1><div class = cue-text><img class = center src=""/static/experiments/flanker_rdoc/images/F.png""></img></div></div><div class = flankerRight_2><div class = cue-text><img class = center src=""/static/experiments/flanker_rdoc/images/F.png""></img></div></div></div></div>",,test_trial,1000.0,,test,1500.0,",",incongruent,F,H,"[',', '.']",0.0,0,,,,0.0,,
48,,html-keyboard-response,48,44875,0.0-3.0-28.0,,<div class = centerbox><div class = fixation>+</div></div>,,test_ITI,127.00831733038098,,test,127.00831733038098,,,,,,0.0,,"{'min': 0, 'max': 5, 'mean': 0.5}",,,,,
49,,html-keyboard-response,49,45381,0.0-3.0-29.0,,<div class = centerbox><div class = fixation>+</div></div>,,test_fixation,500.0,,test,500.0,,,,,,,,,,,,,
50,,html-keyboard-response,50,46889,0.0-3.0-30.0,,"<div class = bigbox><div class = centerbox><div class = flankerLeft_2><div class = cue-text><img class = center src=""/static/experiments/flanker_rdoc/images/F.png""></img></div></div><div class = flankerLeft_1><div class = cue-text><img class = center src=""/static/experiments/flanker_rdoc/images/F.png""></img></div></div><div class = flankerMiddle><div class = cue-text><img class = center src=""/static/experiments/flanker_rdoc/images/F.png""></img></div></div><div class = flankerRight_1><div class = cue-text><img class = center src=""/static/experiments/flanker_rdoc/images/F.png""></img></div></div><div class = flankerRight_2><div class = cue-text><img class = center src=""/static/experiments/flanker_rdoc/images/F.png""></img></div></div></div></div>",,test_trial,1000.0,,test,1500.0,.,congruent,F,F,"[',', '.']",0.0,0,,,,0.0,,
51,,html-keyboard-response,51,47235,0.0-3.0-31.0,,<div class = centerbox><div class = fixation>+</div></div>,,test_ITI,342.5113252324006,,test,342.5113252324006,,,,,,0.0,,"{'min': 0, 'max': 5, 'mean': 0.5}",,,,,
52,,html-keyboard-response,52,47738,0.0-3.0-32.0,,<div class = centerbox><div class = fixation>+</div></div>,,test_fixation,500.0,,test,500.0,,,,,,,,,,,,,
53,,html-keyboard-response,53,49246,0.0-3.0-33.0,,"<div class = bigbox><div class = centerbox><div class = flankerLeft_2><div class = cue-text><img class = center src=""/static/experiments/flanker_rdoc/images/H.png""></img></div></div><div class = flankerLeft_1><div class = cue-text><img class = center src=""/static/experiments/flanker_rdoc/images/H.png""></img></div></div><div class = flankerMiddle><div class = cue-text><img class = center src=""/static/experiments/flanker_rdoc/images/H.png""></img></div></div><div class = flankerRight_1><div class = cue-text><img class = center src=""/static/experiments/flanker_rdoc/images/H.png""></img></div></div><div class = flankerRight_2><div class = cue-text><img class = center src=""/static/experiments/flanker_rdoc/images/H.png""></img></div></div></div></div>",,test_trial,1000.0,,test,1500.0,",",congruent,H,H,"[',', '.']",0.0,0,,,,0.0,,
54,,html-keyboard-response,54,49677,0.0-3.0-34.0,,<div class = centerbox><div class = fixation>+</div></div>,,test_ITI,428.9700933180318,,test,428.9700933180318,,,,,,0.0,,"{'min': 0, 'max': 5, 'mean': 0.5}",,,,,
55,,html-keyboard-response,55,50179,0.0-3.0-35.0,,<div class = centerbox><div class = fixation>+</div></div>,,test_fixation,500.0,,test,500.0,,,,,,,,,,,,,
56,,html-keyboard-response,56,51686,0.0-3.0-36.0,,"<div class = bigbox><div class = centerbox><div class = flankerLeft_2><div class = cue-text><img class = center src=""/static/experiments/flanker_rdoc/images/H.png""></img></div></div><div class = flankerLeft_1><div class = cue-text><img class = center src=""/static/experiments/flanker_rdoc/images/H.png""></img></div></div><div class = flankerMiddle><div class = cue-text><img class = center src=""/static/experiments/flanker_rdoc/images/F.png""></img></div></div><div class = flankerRight_1><div class = cue-text><img class = center src=""/static/experiments/flanker_rdoc/images/H.png""></img></div></div><div class = flankerRight_2><div class = cue-text><img class = center src=""/static/experiments/flanker_rdoc/images/H.png""></img></div></div></div></div>",,test_trial,1000.0,,test,1500.0,.,incongruent,H,F,"[',', '.']",0.0,0,,,,0.0,,
57,,html-keyboard-response,57,51938,0.0-3.0-37.0,,<div class = centerbox><div class = fixation>+</div></div>,,test_ITI,246.4626339112113,,test,246.4626339112113,,,,,,0.0,,"{'min': 0, 'max': 5, 'mean': 0.5}",,,,,
58,,html-keyboard-response,58,52444,0.0-3.0-38.0,,<div class = centerbox><div class = fixation>+</div></div>,,test_fixation,500.0,,test,500.0,,,,,,,,,,,,,
59,,html-keyboard-response,59,53949,0.0-3.0-39.0,,"<div class = bigbox><div class = centerbox><div class = flankerLeft_2><div class = cue-text><img class = center src=""/static/experiments/flanker_rdoc/images/H.png""></img></div></div><div class = flankerLeft_1><div class = cue-text><img class = center src=""/static/experiments/flanker_rdoc/images/H.png""></img></div></div><div class = flankerMiddle><div class = cue-text><img class = center src=""/static/experiments/flanker_rdoc/images/H.png""></img></div></div><div class = flankerRight_1><div class = cue-text><img class = center src=""/static/experiments/flanker_rdoc/images/H.png""></img></div></div><div class = flankerRight_2><div class = cue-text><img class = center src=""/static/experiments/flanker_rdoc/images/H.png""></img></div></div></div></div>",,test_trial,1000.0,,test,1500.0,",",congruent,H,H,"[',', '.']",0.0,0,,,,0.0,,
60,,html-keyboard-response,60,54058,0.0-3.0-40.0,,<div class = centerbox><div class = fixation>+</div></div>,,test_ITI,108.75233106108863,,test,108.75233106108863,,,,,,0.0,,"{'min': 0, 'max': 5, 'mean': 0.5}",,,,,
61,,html-keyboard-response,61,54562,0.0-3.0-41.0,,<div class = centerbox><div class = fixation>+</div></div>,,test_fixation,500.0,,test,500.0,,,,,,,,,,,,,
62,,html-keyboard-response,62,56069,0.0-3.0-42.0,,"<div class = bigbox><div class = centerbox><div class = flankerLeft_2><div class = cue-text><img class = center src=""/static/experiments/flanker_rdoc/images/H.png""></img></div></div><div class = flankerLeft_1><div class = cue-text><img class = center src=""/static/experiments/flanker_rdoc/images/H.png""></img></div></div><div class = flankerMiddle><div class = cue-text><img class = center src=""/static/experiments/flanker_rdoc/images/F.png""></img></div></div><div class = flankerRight_1><div class = cue-text><img class = center src=""/static/experiments/flanker_rdoc/images/H.png""></img></div></div><div class = flankerRight_2><div class = cue-text><img class = center src=""/static/experiments/flanker_rdoc/images/H.png""></img></div></div></div></div>",,test_trial,1000.0,,test,1500.0,.,incongruent,H,F,"[',', '.']",0.0,0,,,,0.0,,
63,,html-keyboard-response,63,57784,0.0-3.0-43.0,,<div class = centerbox><div class = fixation>+</div></div>,,test_ITI,1708.3182149002505,,test,1708.3182149002505,,,,,,0.0,,"{'min': 0, 'max': 5, 'mean': 0.5}",,,,,
64,,html-keyboard-response,64,58288,0.0-3.0-44.0,,<div class = centerbox><div class = fixation>+</div></div>,,test_fixation,500.0,,test,500.0,,,,,,,,,,,,,
65,,html-keyboard-response,65,59795,0.0-3.0-45.0,,"<div class = bigbox><div class = centerbox><div class = flankerLeft_2><div class = cue-text><img class = center src=""/static/experiments/flanker_rdoc/images/F.png""></img></div></div><div class = flankerLeft_1><div class = cue-text><img class = center src=""/static/experiments/flanker_rdoc/images/F.png""></img></div></div><div class = flankerMiddle><div class = cue-text><img class = center src=""/static/experiments/flanker_rdoc/images/F.png""></img></div></div><div class = flankerRight_1><div class = cue-text><img class = center src=""/static/experiments/flanker_rdoc/images/F.png""></img></div></div><div class = flankerRight_2><div class = cue-text><img class = center src=""/static/experiments/flanker_rdoc/images/F.png""></img></div></div></div></div>",,test_trial,1000.0,,test,1500.0,.,congruent,F,F,"[',', '.']",0.0,0,,,,0.0,,
66,,html-keyboard-response,66,59975,0.0-3.0-46.0,,<div class = centerbox><div class = fixation>+</div></div>,,test_ITI,176.79032935795968,,test,176.79032935795968,,,,,,0.0,,"{'min': 0, 'max': 5, 'mean': 0.5}",,,,,
67,,html-keyboard-response,67,60480,0.0-3.0-47.0,,<div class = centerbox><div class = fixation>+</div></div>,,test_fixation,500.0,,test,500.0,,,,,,,,,,,,,
68,,html-keyboard-response,68,61987,0.0-3.0-48.0,,"<div class = bigbox><div class = centerbox><div class = flankerLeft_2><div class = cue-text><img class = center src=""/static/experiments/flanker_rdoc/images/H.png""></img></div></div><div class = flankerLeft_1><div class = cue-text><img class = center src=""/static/experiments/flanker_rdoc/images/H.png""></img></div></div><div class = flankerMiddle><div class = cue-text><img class = center src=""/static/experiments/flanker_rdoc/images/H.png""></img></div></div><div class = flankerRight_1><div class = cue-text><img class = center src=""/static/experiments/flanker_rdoc/images/H.png""></img></div></div><div class = flankerRight_2><div class = cue-text><img class = center src=""/static/experiments/flanker_rdoc/images/H.png""></img></div></div></div></div>",,test_trial,1000.0,,test,1500.0,",",congruent,H,H,"[',', '.']",0.0,0,,,,0.0,,
69,,html-keyboard-response,69,62292,0.0-3.0-49.0,,<div class = centerbox><div class = fixation>+</div></div>,,test_ITI,299.68909751207707,,test,299.68909751207707,,,,,,0.0,,"{'min': 0, 'max': 5, 'mean': 0.5}",,,,,
70,,html-keyboard-response,70,62795,0.0-3.0-50.0,,<div class = centerbox><div class = fixation>+</div></div>,,test_fixation,500.0,,test,500.0,,,,,,,,,,,,,
71,,html-keyboard-response,71,64302,0.0-3.0-51.0,,"<div class = bigbox><div class = centerbox><div class = flankerLeft_2><div class = cue-text><img class = center src=""/static/experiments/flanker_rdoc/images/F.png""></img></div></div><div class = flankerLeft_1><div class = cue-text><img class = center src=""/static/experiments/flanker_rdoc/images/F.png""></img></div></div><div class = flankerMiddle><div class = cue-text><img class = center src=""/static/experiments/flanker_rdoc/images/F.png""></img></div></div><div class = flankerRight_1><div class = cue-text><img class = center src=""/static/experiments/flanker_rdoc/images/F.png""></img></div></div><div class = flankerRight_2><div class = cue-text><img class = center src=""/static/experiments/flanker_rdoc/images/F.png""></img></div></div></div></div>",,test_trial,1000.0,,test,1500.0,.,congruent,F,F,"[',', '.']",0.0,0,,,,0.0,,
72,,html-keyboard-response,72,64335,0.0-3.0-52.0,,<div class = centerbox><div class = fixation>+</div></div>,,test_ITI,31.77246447052498,,test,31.77246447052498,,,,,,0.0,,"{'min': 0, 'max': 5, 'mean': 0.5}",,,,,
73,,html-keyboard-response,73,64840,0.0-3.0-53.0,,<div class = centerbox><div class = fixation>+</div></div>,,test_fixation,500.0,,test,500.0,,,,,,,,,,,,,
74,,html-keyboard-response,74,66345,0.0-3.0-54.0,,"<div class = bigbox><div class = centerbox><div class = flankerLeft_2><div class = cue-text><img class = center src=""/static/experiments/flanker_rdoc/images/F.png""></img></div></div><div class = flankerLeft_1><div class = cue-text><img class = center src=""/static/experiments/flanker_rdoc/images/F.png""></img></div></div><div class = flankerMiddle><div class = cue-text><img class = center src=""/static/experiments/flanker_rdoc/images/H.png""></img></div></div><div class = flankerRight_1><div class = cue-text><img class = center src=""/static/experiments/flanker_rdoc/images/F.png""></img></div></div><div class = flankerRight_2><div class = cue-text><img class = center src=""/static/experiments/flanker_rdoc/images/F.png""></img></div></div></div></div>",,test_trial,1000.0,,test,1500.0,",",incongruent,F,H,"[',', '.']",0.0,0,,,,0.0,,
75,,html-keyboard-response,75,67132,0.0-3.0-55.0,,<div class = centerbox><div class = fixation>+</div></div>,,test_ITI,780.1213710053639,,test,780.1213710053639,,,,,,0.0,,"{'min': 0, 'max': 5, 'mean': 0.5}",,,,,
76,,html-keyboard-response,76,67636,0.0-3.0-56.0,,<div class = centerbox><div class = fixation>+</div></div>,,test_fixation,500.0,,test,500.0,,,,,,,,,,,,,
77,,html-keyboard-response,77,69143,0.0-3.0-57.0,,"<div class = bigbox><div class = centerbox><div class = flankerLeft_2><div class = cue-text><img class = center src=""/static/experiments/flanker_rdoc/images/H.png""></img></div></div><div class = flankerLeft_1><div class = cue-text><img class = center src=""/static/experiments/flanker_rdoc/images/H.png""></img></div></div><div class = flankerMiddle><div class = cue-text><img class = center src=""/static/experiments/flanker_rdoc/images/H.png""></img></div></div><div class = flankerRight_1><div class = cue-text><img class = center src=""/static/experiments/flanker_rdoc/images/H.png""></img></div></div><div class = flankerRight_2><div class = cue-text><img class = center src=""/static/experiments/flanker_rdoc/images/H.png""></img></div></div></div></div>",,test_trial,1000.0,,test,1500.0,",",congruent,H,H,"[',', '.']",0.0,0,,,,0.0,,
78,,html-keyboard-response,78,69359,0.0-3.0-58.0,,<div class = centerbox><div class = fixation>+</div></div>,,test_ITI,211.61679543400228,,test,211.61679543400228,,,,,,0.0,,"{'min': 0, 'max': 5, 'mean': 0.5}",,,,,
79,,html-keyboard-response,79,69862,0.0-3.0-59.0,,<div class = centerbox><div class = fixation>+</div></div>,,test_fixation,500.0,,test,500.0,,,,,,,,,,,,,
80,,html-keyboard-response,80,71368,0.0-3.0-60.0,,"<div class = bigbox><div class = centerbox><div class = flankerLeft_2><div class = cue-text><img class = center src=""/static/experiments/flanker_rdoc/images/H.png""></img></div></div><div class = flankerLeft_1><div class = cue-text><img class = center src=""/static/experiments/flanker_rdoc/images/H.png""></img></div></div><div class = flankerMiddle><div class = cue-text><img class = center src=""/static/experiments/flanker_rdoc/images/F.png""></img></div></div><div class = flankerRight_1><div class = cue-text><img class = center src=""/static/experiments/flanker_rdoc/images/H.png""></img></div></div><div class = flankerRight_2><div class = cue-text><img class = center src=""/static/experiments/flanker_rdoc/images/H.png""></img></div></div></div></div>",,test_trial,1000.0,,test,1500.0,.,incongruent,H,F,"[',', '.']",0.0,0,,,,0.0,,
81,,html-keyboard-response,81,71699,0.0-3.0-61.0,,<div class = centerbox><div class = fixation>+</div></div>,,test_ITI,328.86595318724875,,test,328.86595318724875,,,,,,0.0,,"{'min': 0, 'max': 5, 'mean': 0.5}",,,,,
82,,html-keyboard-response,82,72203,0.0-3.0-62.0,,<div class = centerbox><div class = fixation>+</div></div>,,test_fixation,500.0,,test,500.0,,,,,,,,,,,,,
83,,html-keyboard-response,83,73707,0.0-3.0-63.0,,"<div class = bigbox><div class = centerbox><div class = flankerLeft_2><div class = cue-text><img class = center src=""/static/experiments/flanker_rdoc/images/F.png""></img></div></div><div class = flankerLeft_1><div class = cue-text><img class = center src=""/static/experiments/flanker_rdoc/images/F.png""></img></div></div><div class = flankerMiddle><div class = cue-text><img class = center src=""/static/experiments/flanker_rdoc/images/F.png""></img></div></div><div class = flankerRight_1><div class = cue-text><img class = center src=""/static/experiments/flanker_rdoc/images/F.png""></img></div></div><div class = flankerRight_2><div class = cue-text><img class = center src=""/static/experiments/flanker_rdoc/images/F.png""></img></div></div></div></div>",,test_trial,1000.0,,test,1500.0,.,congruent,F,F,"[',', '.']",0.0,0,,,,0.0,,
84,,html-keyboard-response,84,74141,0.0-3.0-64.0,,<div class = centerbox><div class = fixation>+</div></div>,,test_ITI,430.473007507681,,test,430.473007507681,,,,,,0.0,,"{'min': 0, 'max': 5, 'mean': 0.5}",,,,,
85,,html-keyboard-response,85,74645,0.0-3.0-65.0,,<div class = centerbox><div class = fixation>+</div></div>,,test_fixation,500.0,,test,500.0,,,,,,,,,,,,,
86,,html-keyboard-response,86,76152,0.0-3.0-66.0,,"<div class = bigbox><div class = centerbox><div class = flankerLeft_2><div class = cue-text><img class = center src=""/static/experiments/flanker_rdoc/images/H.png""></img></div></div><div class = flankerLeft_1><div class = cue-text><img class = center src=""/static/experiments/flanker_rdoc/images/H.png""></img></div></div><div class = flankerMiddle><div class = cue-text><img class = center src=""/static/experiments/flanker_rdoc/images/H.png""></img></div></div><div class = flankerRight_1><div class = cue-text><img class = center src=""/static/experiments/flanker_rdoc/images/H.png""></img></div></div><div class = flankerRight_2><div class = cue-text><img class = center src=""/static/experiments/flanker_rdoc/images/H.png""></img></div></div></div></div>",,test_trial,1000.0,,test,1500.0,",",congruent,H,H,"[',', '.']",0.0,0,,,,0.0,,
87,,html-keyboard-response,87,76371,0.0-3.0-67.0,,<div class = centerbox><div class = fixation>+</div></div>,,test_ITI,212.92577867603865,,test,212.92577867603865,,,,,,0.0,,"{'min': 0, 'max': 5, 'mean': 0.5}",,,,,
88,,html-keyboard-response,88,76875,0.0-3.0-68.0,,<div class = centerbox><div class = fixation>+</div></div>,,test_fixation,500.0,,test,500.0,,,,,,,,,,,,,
89,,html-keyboard-response,89,78382,0.0-3.0-69.0,,"<div class = bigbox><div class = centerbox><div class = flankerLeft_2><div class = cue-text><img class = center src=""/static/experiments/flanker_rdoc/images/F.png""></img></div></div><div class = flankerLeft_1><div class = cue-text><img class = center src=""/static/experiments/flanker_rdoc/images/F.png""></img></div></div><div class = flankerMiddle><div class = cue-text><img class = center src=""/static/experiments/flanker_rdoc/images/F.png""></img></div></div><div class = flankerRight_1><div class = cue-text><img class = center src=""/static/experiments/flanker_rdoc/images/F.png""></img></div></div><div class = flankerRight_2><div class = cue-text><img class = center src=""/static/experiments/flanker_rdoc/images/F.png""></img></div></div></div></div>",,test_trial,1000.0,,test,1500.0,.,congruent,F,F,"[',', '.']",0.0,0,,,,0.0,,
90,,html-keyboard-response,90,79180,0.0-3.0-70.0,,<div class = centerbox><div class = fixation>+</div></div>,,test_ITI,796.192493532635,,test,796.192493532635,,,,,,0.0,,"{'min': 0, 'max': 5, 'mean': 0.5}",,,,,
91,,html-keyboard-response,91,79685,0.0-3.0-71.0,,<div class = centerbox><div class = fixation>+</div></div>,,test_fixation,500.0,,test,500.0,,,,,,,,,,,,,
92,,html-keyboard-response,92,81193,0.0-3.0-72.0,,"<div class = bigbox><div class = centerbox><div class = flankerLeft_2><div class = cue-text><img class = center src=""/static/experiments/flanker_rdoc/images/F.png""></img></div></div><div class = flankerLeft_1><div class = cue-text><img class = center src=""/static/experiments/flanker_rdoc/images/F.png""></img></div></div><div class = flankerMiddle><div class = cue-text><img class = center src=""/static/experiments/flanker_rdoc/images/H.png""></img></div></div><div class = flankerRight_1><div class = cue-text><img class = center src=""/static/experiments/flanker_rdoc/images/F.png""></img></div></div><div class = flankerRight_2><div class = cue-text><img class = center src=""/static/experiments/flanker_rdoc/images/F.png""></img></div></div></div></div>",,test_trial,1000.0,,test,1500.0,",",incongruent,F,H,"[',', '.']",0.0,0,,,,0.0,,
93,,html-keyboard-response,93,81397,0.0-3.0-73.0,,<div class = centerbox><div class = fixation>+</div></div>,,test_ITI,199.67082809428732,,test,199.67082809428732,,,,,,0.0,,"{'min': 0, 'max': 5, 'mean': 0.5}",,,,,
94,,html-keyboard-response,94,81901,0.0-3.0-74.0,,<div class = centerbox><div class = fixation>+</div></div>,,test_fixation,500.0,,test,500.0,,,,,,,,,,,,,
95,,html-keyboard-response,95,83407,0.0-3.0-75.0,,"<div class = bigbox><div class = centerbox><div class = flankerLeft_2><div class = cue-text><img class = center src=""/static/experiments/flanker_rdoc/images/F.png""></img></div></div><div class = flankerLeft_1><div class = cue-text><img class = center src=""/static/experiments/flanker_rdoc/images/F.png""></img></div></div><div class = flankerMiddle><div class = cue-text><img class = center src=""/static/experiments/flanker_rdoc/images/F.png""></img></div></div><div class = flankerRight_1><div class = cue-text><img class = center src=""/static/experiments/flanker_rdoc/images/F.png""></img></div></div><div class = flankerRight_2><div class = cue-text><img class = center src=""/static/experiments/flanker_rdoc/images/F.png""></img></div></div></div></div>",,test_trial,1000.0,,test,1500.0,.,congruent,F,F,"[',', '.']",0.0,0,,,,0.0,,
96,,html-keyboard-response,96,84286,0.0-3.0-76.0,,<div class = centerbox><div class = fixation>+</div></div>,,test_ITI,873.8302924263734,,test,873.8302924263734,,,,,,0.0,,"{'min': 0, 'max': 5, 'mean': 0.5}",,,,,
97,,html-keyboard-response,97,84791,0.0-3.0-77.0,,<div class = centerbox><div class = fixation>+</div></div>,,test_fixation,500.0,,test,500.0,,,,,,,,,,,,,
98,,html-keyboard-response,98,86299,0.0-3.0-78.0,,"<div class = bigbox><div class = centerbox><div class = flankerLeft_2><div class = cue-text><img class = center src=""/static/experiments/flanker_rdoc/images/H.png""></img></div></div><div class = flankerLeft_1><div class = cue-text><img class = center src=""/static/experiments/flanker_rdoc/images/H.png""></img></div></div><div class = flankerMiddle><div class = cue-text><img class = center src=""/static/experiments/flanker_rdoc/images/F.png""></img></div></div><div class = flankerRight_1><div class = cue-text><img class = center src=""/static/experiments/flanker_rdoc/images/H.png""></img></div></div><div class = flankerRight_2><div class = cue-text><img class = center src=""/static/experiments/flanker_rdoc/images/H.png""></img></div></div></div></div>",,test_trial,1000.0,,test,1500.0,.,incongruent,H,F,"[',', '.']",0.0,0,,,,0.0,,
99,,html-keyboard-response,99,86710,0.0-3.0-79.0,,<div class = centerbox><div class = fixation>+</div></div>,,test_ITI,408.2643391547734,,test,408.2643391547734,,,,,,0.0,,"{'min': 0, 'max': 5, 'mean': 0.5}",,,,,
100,,html-keyboard-response,100,87214,0.0-3.0-80.0,,<div class = centerbox><div class = fixation>+</div></div>,,test_fixation,500.0,,test,500.0,,,,,,,,,,,,,
101,,html-keyboard-response,101,88721,0.0-3.0-81.0,,"<div class = bigbox><div class = centerbox><div class = flankerLeft_2><div class = cue-text><img class = center src=""/static/experiments/flanker_rdoc/images/F.png""></img></div></div><div class = flankerLeft_1><div class = cue-text><img class = center src=""/static/experiments/flanker_rdoc/images/F.png""></img></div></div><div class = flankerMiddle><div class = cue-text><img class = center src=""/static/experiments/flanker_rdoc/images/H.png""></img></div></div><div class = flankerRight_1><div class = cue-text><img class = center src=""/static/experiments/flanker_rdoc/images/F.png""></img></div></div><div class = flankerRight_2><div class = cue-text><img class = center src=""/static/experiments/flanker_rdoc/images/F.png""></img></div></div></div></div>",,test_trial,1000.0,,test,1500.0,",",incongruent,F,H,"[',', '.']",0.0,0,,,,0.0,,
102,,html-keyboard-response,102,89331,0.0-3.0-82.0,,<div class = centerbox><div class = fixation>+</div></div>,,test_ITI,604.8377238787192,,test,604.8377238787192,,,,,,0.0,,"{'min': 0, 'max': 5, 'mean': 0.5}",,,,,
103,,html-keyboard-response,103,89833,0.0-3.0-83.0,,<div class = centerbox><div class = fixation>+</div></div>,,test_fixation,500.0,,test,500.0,,,,,,,,,,,,,
104,,html-keyboard-response,104,91340,0.0-3.0-84.0,,"<div class = bigbox><div class = centerbox><div class = flankerLeft_2><div class = cue-text><img class = center src=""/static/experiments/flanker_rdoc/images/F.png""></img></div></div><div class = flankerLeft_1><div class = cue-text><img class = center src=""/static/experiments/flanker_rdoc/images/F.png""></img></div></div><div class = flankerMiddle><div class = cue-text><img class = center src=""/static/experiments/flanker_rdoc/images/H.png""></img></div></div><div class = flankerRight_1><div class = cue-text><img class = center src=""/static/experiments/flanker_rdoc/images/F.png""></img></div></div><div class = flankerRight_2><div class = cue-text><img class = center src=""/static/experiments/flanker_rdoc/images/F.png""></img></div></div></div></div>",,test_trial,1000.0,,test,1500.0,",",incongruent,F,H,"[',', '.']",0.0,0,,,,0.0,,
105,,html-keyboard-response,105,93136,0.0-3.0-85.0,,<div class = centerbox><div class = fixation>+</div></div>,,test_ITI,1790.7983619091115,,test,1790.7983619091115,,,,,,0.0,,"{'min': 0, 'max': 5, 'mean': 0.5}",,,,,
106,,html-keyboard-response,106,93641,0.0-3.0-86.0,,<div class = centerbox><div class = fixation>+</div></div>,,test_fixation,500.0,,test,500.0,,,,,,,,,,,,,
107,,html-keyboard-response,107,95143,0.0-3.0-87.0,,"<div class = bigbox><div class = centerbox><div class = flankerLeft_2><div class = cue-text><img class = center src=""/static/experiments/flanker_rdoc/images/F.png""></img></div></div><div class = flankerLeft_1><div class = cue-text><img class = center src=""/static/experiments/flanker_rdoc/images/F.png""></img></div></div><div class = flankerMiddle><div class = cue-text><img class = center src=""/static/experiments/flanker_rdoc/images/H.png""></img></div></div><div class = flankerRight_1><div class = cue-text><img class = center src=""/static/experiments/flanker_rdoc/images/F.png""></img></div></div><div class = flankerRight_2><div class = cue-text><img class = center src=""/static/experiments/flanker_rdoc/images/F.png""></img></div></div></div></div>",,test_trial,1000.0,,test,1500.0,",",incongruent,F,H,"[',', '.']",0.0,0,,,,0.0,,
108,,html-keyboard-response,108,95223,0.0-3.0-88.0,,<div class = centerbox><div class = fixation>+</div></div>,,test_ITI,75.61707388370276,,test,75.61707388370276,,,,,,0.0,,"{'min': 0, 'max': 5, 'mean': 0.5}",,,,,
109,,html-keyboard-response,109,95726,0.0-3.0-89.0,,<div class = centerbox><div class = fixation>+</div></div>,,test_fixation,500.0,,test,500.0,,,,,,,,,,,,,
110,,html-keyboard-response,110,97234,0.0-3.0-90.0,,"<div class = bigbox><div class = centerbox><div class = flankerLeft_2><div class = cue-text><img class = center src=""/static/experiments/flanker_rdoc/images/F.png""></img></div></div><div class = flankerLeft_1><div class = cue-text><img class = center src=""/static/experiments/flanker_rdoc/images/F.png""></img></div></div><div class = flankerMiddle><div class = cue-text><img class = center src=""/static/experiments/flanker_rdoc/images/F.png""></img></div></div><div class = flankerRight_1><div class = cue-text><img class = center src=""/static/experiments/flanker_rdoc/images/F.png""></img></div></div><div class = flankerRight_2><div class = cue-text><img class = center src=""/static/experiments/flanker_rdoc/images/F.png""></img></div></div></div></div>",,test_trial,1000.0,,test,1500.0,.,congruent,F,F,"[',', '.']",0.0,0,,,,0.0,,
111,,html-keyboard-response,111,97515,0.0-3.0-91.0,,<div class = centerbox><div class = fixation>+</div></div>,,test_ITI,278.7648580981745,,test,278.7648580981745,,,,,,0.0,,"{'min': 0, 'max': 5, 'mean': 0.5}",,,,,
112,,html-keyboard-response,112,98017,0.0-3.0-92.0,,<div class = centerbox><div class = fixation>+</div></div>,,test_fixation,500.0,,test,500.0,,,,,,,,,,,,,
113,,html-keyboard-response,113,99525,0.0-3.0-93.0,,"<div class = bigbox><div class = centerbox><div class = flankerLeft_2><div class = cue-text><img class = center src=""/static/experiments/flanker_rdoc/images/F.png""></img></div></div><div class = flankerLeft_1><div class = cue-text><img class = center src=""/static/experiments/flanker_rdoc/images/F.png""></img></div></div><div class = flankerMiddle><div class = cue-text><img class = center src=""/static/experiments/flanker_rdoc/images/F.png""></img></div></div><div class = flankerRight_1><div class = cue-text><img class = center src=""/static/experiments/flanker_rdoc/images/F.png""></img></div></div><div class = flankerRight_2><div class = cue-text><img class = center src=""/static/experiments/flanker_rdoc/images/F.png""></img></div></div></div></div>",,test_trial,1000.0,,test,1500.0,.,congruent,F,F,"[',', '.']",0.0,0,,,,0.0,,
114,,html-keyboard-response,114,99691,0.0-3.0-94.0,,<div class = centerbox><div class = fixation>+</div></div>,,test_ITI,165.40238314194244,,test,165.40238314194244,,,,,,0.0,,"{'min': 0, 'max': 5, 'mean': 0.5}",,,,,
115,,html-keyboard-response,115,100195,0.0-3.0-95.0,,<div class = centerbox><div class = fixation>+</div></div>,,test_fixation,500.0,,test,500.0,,,,,,,,,,,,,
116,,html-keyboard-response,116,101703,0.0-3.0-96.0,,"<div class = bigbox><div class = centerbox><div class = flankerLeft_2><div class = cue-text><img class = center src=""/static/experiments/flanker_rdoc/images/F.png""></img></div></div><div class = flankerLeft_1><div class = cue-text><img class = center src=""/static/experiments/flanker_rdoc/images/F.png""></img></div></div><div class = flankerMiddle><div class = cue-text><img class = center src=""/static/experiments/flanker_rdoc/images/H.png""></img></div></div><div class = flankerRight_1><div class = cue-text><img class = center src=""/static/experiments/flanker_rdoc/images/F.png""></img></div></div><div class = flankerRight_2><div class = cue-text><img class = center src=""/static/experiments/flanker_rdoc/images/F.png""></img></div></div></div></div>",,test_trial,1000.0,,test,1500.0,",",incongruent,F,H,"[',', '.']",0.0,0,,,,0.0,,
117,,html-keyboard-response,117,102143,0.0-3.0-97.0,,<div class = centerbox><div class = fixation>+</div></div>,,test_ITI,437.3873071076185,,test,437.3873071076185,,,,,,0.0,,"{'min': 0, 'max': 5, 'mean': 0.5}",,,,,
118,,html-keyboard-response,118,102649,0.0-3.0-98.0,,<div class = centerbox><div class = fixation>+</div></div>,,test_fixation,500.0,,test,500.0,,,,,,,,,,,,,
119,,html-keyboard-response,119,104156,0.0-3.0-99.0,,"<div class = bigbox><div class = centerbox><div class = flankerLeft_2><div class = cue-text><img class = center src=""/static/experiments/flanker_rdoc/images/F.png""></img></div></div><div class = flankerLeft_1><div class = cue-text><img class = center src=""/static/experiments/flanker_rdoc/images/F.png""></img></div></div><div class = flankerMiddle><div class = cue-text><img class = center src=""/static/experiments/flanker_rdoc/images/F.png""></img></div></div><div class = flankerRight_1><div class = cue-text><img class = center src=""/static/experiments/flanker_rdoc/images/F.png""></img></div></div><div class = flankerRight_2><div class = cue-text><img class = center src=""/static/experiments/flanker_rdoc/images/F.png""></img></div></div></div></div>",,test_trial,1000.0,,test,1500.0,.,congruent,F,F,"[',', '.']",0.0,0,,,,0.0,,
120,,html-keyboard-response,120,104581,0.0-3.0-100.0,,<div class = centerbox><div class = fixation>+</div></div>,,test_ITI,423.42534695783,,test,423.42534695783,,,,,,0.0,,"{'min': 0, 'max': 5, 'mean': 0.5}",,,,,
121,,html-keyboard-response,121,105085,0.0-3.0-101.0,,<div class = centerbox><div class = fixation>+</div></div>,,test_fixation,500.0,,test,500.0,,,,,,,,,,,,,
122,,html-keyboard-response,122,106593,0.0-3.0-102.0,,"<div class = bigbox><div class = centerbox><div class = flankerLeft_2><div class = cue-text><img class = center src=""/static/experiments/flanker_rdoc/images/H.png""></img></div></div><div class = flankerLeft_1><div class = cue-text><img class = center src=""/static/experiments/flanker_rdoc/images/H.png""></img></div></div><div class = flankerMiddle><div class = cue-text><img class = center src=""/static/experiments/flanker_rdoc/images/F.png""></img></div></div><div class = flankerRight_1><div class = cue-text><img class = center src=""/static/experiments/flanker_rdoc/images/H.png""></img></div></div><div class = flankerRight_2><div class = cue-text><img class = center src=""/static/experiments/flanker_rdoc/images/H.png""></img></div></div></div></div>",,test_trial,1000.0,,test,1500.0,.,incongruent,H,F,"[',', '.']",0.0,0,,,,0.0,,
123,,html-keyboard-response,123,107583,0.0-3.0-103.0,,<div class = centerbox><div class = fixation>+</div></div>,,test_ITI,984.8336626016737,,test,984.8336626016737,,,,,,0.0,,"{'min': 0, 'max': 5, 'mean': 0.5}",,,,,
124,,html-keyboard-response,124,108085,0.0-3.0-104.0,,<div class = centerbox><div class = fixation>+</div></div>,,test_fixation,500.0,,test,500.0,,,,,,,,,,,,,
125,,html-keyboard-response,125,109592,0.0-3.0-105.0,,"<div class = bigbox><div class = centerbox><div class = flankerLeft_2><div class = cue-text><img class = center src=""/static/experiments/flanker_rdoc/images/H.png""></img></div></div><div class = flankerLeft_1><div class = cue-text><img class = center src=""/static/experiments/flanker_rdoc/images/H.png""></img></div></div><div class = flankerMiddle><div class = cue-text><img class = center src=""/static/experiments/flanker_rdoc/images/F.png""></img></div></div><div class = flankerRight_1><div class = cue-text><img class = center src=""/static/experiments/flanker_rdoc/images/H.png""></img></div></div><div class = flankerRight_2><div class = cue-text><img class = center src=""/static/experiments/flanker_rdoc/images/H.png""></img></div></div></div></div>",,test_trial,1000.0,,test,1500.0,.,incongruent,H,F,"[',', '.']",0.0,0,,,,0.0,,
126,,html-keyboard-response,126,109909,0.0-3.0-106.0,,<div class = centerbox><div class = fixation>+</div></div>,,test_ITI,311.82080189907083,,test,311.82080189907083,,,,,,0.0,,"{'min': 0, 'max': 5, 'mean': 0.5}",,,,,
127,,html-keyboard-response,127,110413,0.0-3.0-107.0,,<div class = centerbox><div class = fixation>+</div></div>,,test_fixation,500.0,,test,500.0,,,,,,,,,,,,,
128,,html-keyboard-response,128,111920,0.0-3.0-108.0,,"<div class = bigbox><div class = centerbox><div class = flankerLeft_2><div class = cue-text><img class = center src=""/static/experiments/flanker_rdoc/images/H.png""></img></div></div><div class = flankerLeft_1><div class = cue-text><img class = center src=""/static/experiments/flanker_rdoc/images/H.png""></img></div></div><div class = flankerMiddle><div class = cue-text><img class = center src=""/static/experiments/flanker_rdoc/images/H.png""></img></div></div><div class = flankerRight_1><div class = cue-text><img class = center src=""/static/experiments/flanker_rdoc/images/H.png""></img></div></div><div class = flankerRight_2><div class = cue-text><img class = center src=""/static/experiments/flanker_rdoc/images/H.png""></img></div></div></div></div>",,test_trial,1000.0,,test,1500.0,",",congruent,H,H,"[',', '.']",0.0,0,,,,0.0,,
129,,html-keyboard-response,129,112145,0.0-3.0-109.0,,<div class = centerbox><div class = fixation>+</div></div>,,test_ITI,224.03786940418007,,test,224.03786940418007,,,,,,0.0,,"{'min': 0, 'max': 5, 'mean': 0.5}",,,,,
130,,html-keyboard-response,130,112649,0.0-3.0-110.0,,<div class = centerbox><div class = fixation>+</div></div>,,test_fixation,500.0,,test,500.0,,,,,,,,,,,,,
131,,html-keyboard-response,131,114156,0.0-3.0-111.0,,"<div class = bigbox><div class = centerbox><div class = flankerLeft_2><div class = cue-text><img class = center src=""/static/experiments/flanker_rdoc/images/H.png""></img></div></div><div class = flankerLeft_1><div class = cue-text><img class = center src=""/static/experiments/flanker_rdoc/images/H.png""></img></div></div><div class = flankerMiddle><div class = cue-text><img class = center src=""/static/experiments/flanker_rdoc/images/H.png""></img></div></div><div class = flankerRight_1><div class = cue-text><img class = center src=""/static/experiments/flanker_rdoc/images/H.png""></img></div></div><div class = flankerRight_2><div class = cue-text><img class = center src=""/static/experiments/flanker_rdoc/images/H.png""></img></div></div></div></div>",,test_trial,1000.0,,test,1500.0,",",congruent,H,H,"[',', '.']",0.0,0,,,,0.0,,
132,,html-keyboard-response,132,114478,0.0-3.0-112.0,,<div class = centerbox><div class = fixation>+</div></div>,,test_ITI,316.1226640129549,,test,316.1226640129549,,,,,,0.0,,"{'min': 0, 'max': 5, 'mean': 0.5}",,,,,
133,,html-keyboard-response,133,114981,0.0-3.0-113.0,,<div class = centerbox><div class = fixation>+</div></div>,,test_fixation,500.0,,test,500.0,,,,,,,,,,,,,
134,,html-keyboard-response,134,116487,0.0-3.0-114.0,,"<div class = bigbox><div class = centerbox><div class = flankerLeft_2><div class = cue-text><img class = center src=""/static/experiments/flanker_rdoc/images/F.png""></img></div></div><div class = flankerLeft_1><div class = cue-text><img class = center src=""/static/experiments/flanker_rdoc/images/F.png""></img></div></div><div class = flankerMiddle><div class = cue-text><img class = center src=""/static/experiments/flanker_rdoc/images/F.png""></img></div></div><div class = flankerRight_1><div class = cue-text><img class = center src=""/static/experiments/flanker_rdoc/images/F.png""></img></div></div><div class = flankerRight_2><div class = cue-text><img class = center src=""/static/experiments/flanker_rdoc/images/F.png""></img></div></div></div></div>",,test_trial,1000.0,,test,1500.0,.,congruent,F,F,"[',', '.']",0.0,0,,,,0.0,,
135,,html-keyboard-response,135,116854,0.0-3.0-115.0,,<div class = centerbox><div class = fixation>+</div></div>,,test_ITI,361.39921775416076,,test,361.39921775416076,,,,,,0.0,,"{'min': 0, 'max': 5, 'mean': 0.5}",,,,,
136,,html-keyboard-response,136,117357,0.0-3.0-116.0,,<div class = centerbox><div class = fixation>+</div></div>,,test_fixation,500.0,,test,500.0,,,,,,,,,,,,,
137,,html-keyboard-response,137,118864,0.0-3.0-117.0,,"<div class = bigbox><div class = centerbox><div class = flankerLeft_2><div class = cue-text><img class = center src=""/static/experiments/flanker_rdoc/images/H.png""></img></div></div><div class = flankerLeft_1><div class = cue-text><img class = center src=""/static/experiments/flanker_rdoc/images/H.png""></img></div></div><div class = flankerMiddle><div class = cue-text><img class = center src=""/static/experiments/flanker_rdoc/images/H.png""></img></div></div><div class = flankerRight_1><div class = cue-text><img class = center src=""/static/experiments/flanker_rdoc/images/H.png""></img></div></div><div class = flankerRight_2><div class = cue-text><img class = center src=""/static/experiments/flanker_rdoc/images/H.png""></img></div></div></div></div>",,test_trial,1000.0,,test,1500.0,",",congruent,H,H,"[',', '.']",0.0,0,,,,0.0,,
138,,html-keyboard-response,138,119088,0.0-3.0-118.0,,<div class = centerbox><div class = fixation>+</div></div>,,test_ITI,222.4955665758735,,test,222.4955665758735,,,,,,0.0,,"{'min': 0, 'max': 5, 'mean': 0.5}",,,,,
139,,html-keyboard-response,139,119591,0.0-3.0-119.0,,<div class = centerbox><div class = fixation>+</div></div>,,test_fixation,500.0,,test,500.0,,,,,,,,,,,,,
140,,html-keyboard-response,140,121096,0.0-3.0-120.0,,"<div class = bigbox><div class = centerbox><div class = flankerLeft_2><div class = cue-text><img class = center src=""/static/experiments/flanker_rdoc/images/F.png""></img></div></div><div class = flankerLeft_1><div class = cue-text><img class = center src=""/static/experiments/flanker_rdoc/images/F.png""></img></div></div><div class = flankerMiddle><div class = cue-text><img class = center src=""/static/experiments/flanker_rdoc/images/H.png""></img></div></div><div class = flankerRight_1><div class = cue-text><img class = center src=""/static/experiments/flanker_rdoc/images/F.png""></img></div></div><div class = flankerRight_2><div class = cue-text><img class = center src=""/static/experiments/flanker_rdoc/images/F.png""></img></div></div></div></div>",,test_trial,1000.0,,test,1500.0,",",incongruent,F,H,"[',', '.']",0.0,0,,,,0.0,,
141,,html-keyboard-response,141,121250,0.0-3.0-121.0,,<div class = centerbox><div class = fixation>+</div></div>,,test_ITI,152.49738341589165,,test,152.49738341589165,,,,,,0.0,,"{'min': 0, 'max': 5, 'mean': 0.5}",,,,,
142,,html-keyboard-response,142,128477,0.0-3.1-0.1,7224.0,"<div class = bigbox><div class = picture_box><p class = block-text>
    <div class = centerbox><p class = block-text>Please take this time to read your feedback! This screen will advance automatically in 1 minute.</p><p class=block-text>You have completed 1 out of 3 blocks of trials.</p>
       <p class=""block-text"">Your accuracy is too low. Remember: <br>
  <ul style=""text-align:left;"">
    <li>Indicate the identity of the middle letter.</li>
    <li>H: index finger</li>
    <li>F: middle finger</li>
  </ul>
</p>
      
        <p class=""block-text"">You have not been responding to some trials. Please respond on every trial that requires a response.</p>
      <p class=block-text>Press <i>enter</i> to continue.</p></div>
    </font></p></div></div>",enter,test_feedback,60000.0,,test,,,,,,,,,,,,,,
143,,html-keyboard-response,143,130472,0.0-3.1-1.1-0.1,988.0,,s,test_attention_check,,,test,,,,,,,1.0,True,,<p class='block-text'>Press the S key</p> <div class=block-text>This screen will advance automatically in 1 minute.</div>,83.0,,,
144,,html-keyboard-response,144,130973,0.0-3.1-2.1,,<div class = centerbox><div class = fixation>+</div></div>,,test_fixation,500.0,,test,500.0,,,,,,,,,,,,,
145,,html-keyboard-response,145,132480,0.0-3.1-3.1,469.0,"<div class = bigbox><div class = centerbox><div class = flankerLeft_2><div class = cue-text><img class = center src=""/static/experiments/flanker_rdoc/images/H.png""></img></div></div><div class = flankerLeft_1><div class = cue-text><img class = center src=""/static/experiments/flanker_rdoc/images/H.png""></img></div></div><div class = flankerMiddle><div class = cue-text><img class = center src=""/static/experiments/flanker_rdoc/images/F.png""></img></div></div><div class = flankerRight_1><div class = cue-text><img class = center src=""/static/experiments/flanker_rdoc/images/H.png""></img></div></div><div class = flankerRight_2><div class = cue-text><img class = center src=""/static/experiments/flanker_rdoc/images/H.png""></img></div></div></div></div>",",",test_trial,1000.0,,test,1500.0,.,incongruent,H,F,"[',', '.']",1.0,0,,,,1.0,,
146,,html-keyboard-response,146,133156,0.0-3.1-4.1,,<div class = centerbox><div class = fixation>+</div></div>,,test_ITI,674.5924827800045,,test,674.5924827800045,,,,,,1.0,,"{'min': 0, 'max': 5, 'mean': 0.5}",,,,,
147,,html-keyboard-response,147,133660,0.0-3.1-5.1,,<div class = centerbox><div class = fixation>+</div></div>,,test_fixation,500.0,,test,500.0,,,,,,,,,,,,,
148,,html-keyboard-response,148,135166,0.0-3.1-6.1,791.0,"<div class = bigbox><div class = centerbox><div class = flankerLeft_2><div class = cue-text><img class = center src=""/static/experiments/flanker_rdoc/images/H.png""></img></div></div><div class = flankerLeft_1><div class = cue-text><img class = center src=""/static/experiments/flanker_rdoc/images/H.png""></img></div></div><div class = flankerMiddle><div class = cue-text><img class = center src=""/static/experiments/flanker_rdoc/images/F.png""></img></div></div><div class = flankerRight_1><div class = cue-text><img class = center src=""/static/experiments/flanker_rdoc/images/H.png""></img></div></div><div class = flankerRight_2><div class = cue-text><img class = center src=""/static/experiments/flanker_rdoc/images/H.png""></img></div></div></div></div>",.,test_trial,1000.0,,test,1500.0,.,incongruent,H,F,"[',', '.']",1.0,1,,,,1.0,,
149,,html-keyboard-response,149,135681,0.0-3.1-7.1,,<div class = centerbox><div class = fixation>+</div></div>,,test_ITI,510.6094172682352,,test,510.6094172682352,,,,,,1.0,,"{'min': 0, 'max': 5, 'mean': 0.5}",,,,,
150,,html-keyboard-response,150,136186,0.0-3.1-8.1,,<div class = centerbox><div class = fixation>+</div></div>,,test_fixation,500.0,,test,500.0,,,,,,,,,,,,,
151,,html-keyboard-response,151,137693,0.0-3.1-9.1,784.0,"<div class = bigbox><div class = centerbox><div class = flankerLeft_2><div class = cue-text><img class = center src=""/static/experiments/flanker_rdoc/images/H.png""></img></div></div><div class = flankerLeft_1><div class = cue-text><img class = center src=""/static/experiments/flanker_rdoc/images/H.png""></img></div></div><div class = flankerMiddle><div class = cue-text><img class = center src=""/static/experiments/flanker_rdoc/images/H.png""></img></div></div><div class = flankerRight_1><div class = cue-text><img class = center src=""/static/experiments/flanker_rdoc/images/H.png""></img></div></div><div class = flankerRight_2><div class = cue-text><img class = center src=""/static/experiments/flanker_rdoc/images/H.png""></img></div></div></div></div>",",",test_trial,1000.0,,test,1500.0,",",congruent,H,H,"[',', '.']",1.0,1,,,,1.0,,
152,,html-keyboard-response,152,138419,0.0-3.1-10.1,,<div class = centerbox><div class = fixation>+</div></div>,,test_ITI,719.3990904299379,,test,719.3990904299379,,,,,,1.0,,"{'min': 0, 'max': 5, 'mean': 0.5}",,,,,
153,,html-keyboard-response,153,138924,0.0-3.1-11.1,,<div class = centerbox><div class = fixation>+</div></div>,,test_fixation,500.0,,test,500.0,,,,,,,,,,,,,
154,,html-keyboard-response,154,140431,0.0-3.1-12.1,607.0,"<div class = bigbox><div class = centerbox><div class = flankerLeft_2><div class = cue-text><img class = center src=""/static/experiments/flanker_rdoc/images/H.png""></img></div></div><div class = flankerLeft_1><div class = cue-text><img class = center src=""/static/experiments/flanker_rdoc/images/H.png""></img></div></div><div class = flankerMiddle><div class = cue-text><img class = center src=""/static/experiments/flanker_rdoc/images/H.png""></img></div></div><div class = flankerRight_1><div class = cue-text><img class = center src=""/static/experiments/flanker_rdoc/images/H.png""></img></div></div><div class = flankerRight_2><div class = cue-text><img class = center src=""/static/experiments/flanker_rdoc/images/H.png""></img></div></div></div></div>",",",test_trial,1000.0,,test,1500.0,",",congruent,H,H,"[',', '.']",1.0,1,,,,1.0,,
155,,html-keyboard-response,155,140588,0.0-3.1-13.1,,<div class = centerbox><div class = fixation>+</div></div>,,test_ITI,152.4097812623344,,test,152.4097812623344,,,,,,1.0,,"{'min': 0, 'max': 5, 'mean': 0.5}",,,,,
156,,html-keyboard-response,156,141092,0.0-3.1-14.1,,<div class = centerbox><div class = fixation>+</div></div>,,test_fixation,500.0,,test,500.0,,,,,,,,,,,,,
157,,html-keyboard-response,157,142599,0.0-3.1-15.1,,"<div class = bigbox><div class = centerbox><div class = flankerLeft_2><div class = cue-text><img class = center src=""/static/experiments/flanker_rdoc/images/F.png""></img></div></div><div class = flankerLeft_1><div class = cue-text><img class = center src=""/static/experiments/flanker_rdoc/images/F.png""></img></div></div><div class = flankerMiddle><div class = cue-text><img class = center src=""/static/experiments/flanker_rdoc/images/F.png""></img></div></div><div class = flankerRight_1><div class = cue-text><img class = center src=""/static/experiments/flanker_rdoc/images/F.png""></img></div></div><div class = flankerRight_2><div class = cue-text><img class = center src=""/static/experiments/flanker_rdoc/images/F.png""></img></div></div></div></div>",,test_trial,1000.0,,test,1500.0,.,congruent,F,F,"[',', '.']",1.0,0,,,,1.0,,
158,,html-keyboard-response,158,143275,0.0-3.1-16.1,,<div class = centerbox><div class = fixation>+</div></div>,,test_ITI,669.6882194787862,,test,669.6882194787862,,,,,,1.0,,"{'min': 0, 'max': 5, 'mean': 0.5}",,,,,
159,,html-keyboard-response,159,143778,0.0-3.1-17.1,,<div class = centerbox><div class = fixation>+</div></div>,,test_fixation,500.0,,test,500.0,,,,,,,,,,,,,
160,,html-keyboard-response,160,145281,0.0-3.1-18.1,,"<div class = bigbox><div class = centerbox><div class = flankerLeft_2><div class = cue-text><img class = center src=""/static/experiments/flanker_rdoc/images/F.png""></img></div></div><div class = flankerLeft_1><div class = cue-text><img class = center src=""/static/experiments/flanker_rdoc/images/F.png""></img></div></div><div class = flankerMiddle><div class = cue-text><img class = center src=""/static/experiments/flanker_rdoc/images/F.png""></img></div></div><div class = flankerRight_1><div class = cue-text><img class = center src=""/static/experiments/flanker_rdoc/images/F.png""></img></div></div><div class = flankerRight_2><div class = cue-text><img class = center src=""/static/experiments/flanker_rdoc/images/F.png""></img></div></div></div></div>",,test_trial,1000.0,,test,1500.0,.,congruent,F,F,"[',', '.']",1.0,0,,,,1.0,,
161,,html-keyboard-response,161,145632,0.0-3.1-19.1,,<div class = centerbox><div class = fixation>+</div></div>,,test_ITI,345.05104524497057,,test,345.05104524497057,,,,,,1.0,,"{'min': 0, 'max': 5, 'mean': 0.5}",,,,,
162,,html-keyboard-response,162,146137,0.0-3.1-20.1,,<div class = centerbox><div class = fixation>+</div></div>,,test_fixation,500.0,,test,500.0,,,,,,,,,,,,,
163,,html-keyboard-response,163,147641,0.0-3.1-21.1,,"<div class = bigbox><div class = centerbox><div class = flankerLeft_2><div class = cue-text><img class = center src=""/static/experiments/flanker_rdoc/images/F.png""></img></div></div><div class = flankerLeft_1><div class = cue-text><img class = center src=""/static/experiments/flanker_rdoc/images/F.png""></img></div></div><div class = flankerMiddle><div class = cue-text><img class = center src=""/static/experiments/flanker_rdoc/images/F.png""></img></div></div><div class = flankerRight_1><div class = cue-text><img class = center src=""/static/experiments/flanker_rdoc/images/F.png""></img></div></div><div class = flankerRight_2><div class = cue-text><img class = center src=""/static/experiments/flanker_rdoc/images/F.png""></img></div></div></div></div>",,test_trial,1000.0,,test,1500.0,.,congruent,F,F,"[',', '.']",1.0,0,,,,1.0,,
164,,html-keyboard-response,164,147764,0.0-3.1-22.1,,<div class = centerbox><div class = fixation>+</div></div>,,test_ITI,120.48561282229684,,test,120.48561282229684,,,,,,1.0,,"{'min': 0, 'max': 5, 'mean': 0.5}",,,,,
165,,html-keyboard-response,165,148269,0.0-3.1-23.1,,<div class = centerbox><div class = fixation>+</div></div>,,test_fixation,500.0,,test,500.0,,,,,,,,,,,,,
166,,html-keyboard-response,166,149775,0.0-3.1-24.1,,"<div class = bigbox><div class = centerbox><div class = flankerLeft_2><div class = cue-text><img class = center src=""/static/experiments/flanker_rdoc/images/F.png""></img></div></div><div class = flankerLeft_1><div class = cue-text><img class = center src=""/static/experiments/flanker_rdoc/images/F.png""></img></div></div><div class = flankerMiddle><div class = cue-text><img class = center src=""/static/experiments/flanker_rdoc/images/F.png""></img></div></div><div class = flankerRight_1><div class = cue-text><img class = center src=""/static/experiments/flanker_rdoc/images/F.png""></img></div></div><div class = flankerRight_2><div class = cue-text><img class = center src=""/static/experiments/flanker_rdoc/images/F.png""></img></div></div></div></div>",,test_trial,1000.0,,test,1500.0,.,congruent,F,F,"[',', '.']",1.0,0,,,,1.0,,
167,,html-keyboard-response,167,150942,0.0-3.1-25.1,,<div class = centerbox><div class = fixation>+</div></div>,,test_ITI,1162.3644938555897,,test,1162.3644938555897,,,,,,1.0,,"{'min': 0, 'max': 5, 'mean': 0.5}",,,,,
168,,html-keyboard-response,168,151446,0.0-3.1-26.1,,<div class = centerbox><div class = fixation>+</div></div>,,test_fixation,500.0,,test,500.0,,,,,,,,,,,,,
169,,html-keyboard-response,169,152952,0.0-3.1-27.1,,"<div class = bigbox><div class = centerbox><div class = flankerLeft_2><div class = cue-text><img class = center src=""/static/experiments/flanker_rdoc/images/H.png""></img></div></div><div class = flankerLeft_1><div class = cue-text><img class = center src=""/static/experiments/flanker_rdoc/images/H.png""></img></div></div><div class = flankerMiddle><div class = cue-text><img class = center src=""/static/experiments/flanker_rdoc/images/H.png""></img></div></div><div class = flankerRight_1><div class = cue-text><img class = center src=""/static/experiments/flanker_rdoc/images/H.png""></img></div></div><div class = flankerRight_2><div class = cue-text><img class = center src=""/static/experiments/flanker_rdoc/images/H.png""></img></div></div></div></div>",,test_trial,1000.0,,test,1500.0,",",congruent,H,H,"[',', '.']",1.0,0,,,,1.0,,
170,,html-keyboard-response,170,153142,0.0-3.1-28.1,,<div class = centerbox><div class = fixation>+</div></div>,,test_ITI,184.73301173292293,,test,184.73301173292293,,,,,,1.0,,"{'min': 0, 'max': 5, 'mean': 0.5}",,,,,
171,,html-keyboard-response,171,153646,0.0-3.1-29.1,,<div class = centerbox><div class = fixation>+</div></div>,,test_fixation,500.0,,test,500.0,,,,,,,,,,,,,
172,,html-keyboard-response,172,155152,0.0-3.1-30.1,,"<div class = bigbox><div class = centerbox><div class = flankerLeft_2><div class = cue-text><img class = center src=""/static/experiments/flanker_rdoc/images/F.png""></img></div></div><div class = flankerLeft_1><div class = cue-text><img class = center src=""/static/experiments/flanker_rdoc/images/F.png""></img></div></div><div class = flankerMiddle><div class = cue-text><img class = center src=""/static/experiments/flanker_rdoc/images/F.png""></img></div></div><div class = flankerRight_1><div class = cue-text><img class = center src=""/static/experiments/flanker_rdoc/images/F.png""></img></div></div><div class = flankerRight_2><div class = cue-text><img class = center src=""/static/experiments/flanker_rdoc/images/F.png""></img></div></div></div></div>",,test_trial,1000.0,,test,1500.0,.,congruent,F,F,"[',', '.']",1.0,0,,,,1.0,,
173,,html-keyboard-response,173,156094,0.0-3.1-31.1,,<div class = centerbox><div class = fixation>+</div></div>,,test_ITI,938.2947422399775,,test,938.2947422399775,,,,,,1.0,,"{'min': 0, 'max': 5, 'mean': 0.5}",,,,,
174,,html-keyboard-response,174,156601,0.0-3.1-32.1,,<div class = centerbox><div class = fixation>+</div></div>,,test_fixation,500.0,,test,500.0,,,,,,,,,,,,,
175,,html-keyboard-response,175,158108,0.0-3.1-33.1,,"<div class = bigbox><div class = centerbox><div class = flankerLeft_2><div class = cue-text><img class = center src=""/static/experiments/flanker_rdoc/images/H.png""></img></div></div><div class = flankerLeft_1><div class = cue-text><img class = center src=""/static/experiments/flanker_rdoc/images/H.png""></img></div></div><div class = flankerMiddle><div class = cue-text><img class = center src=""/static/experiments/flanker_rdoc/images/H.png""></img></div></div><div class = flankerRight_1><div class = cue-text><img class = center src=""/static/experiments/flanker_rdoc/images/H.png""></img></div></div><div class = flankerRight_2><div class = cue-text><img class = center src=""/static/experiments/flanker_rdoc/images/H.png""></img></div></div></div></div>",,test_trial,1000.0,,test,1500.0,",",congruent,H,H,"[',', '.']",1.0,0,,,,1.0,,
176,,html-keyboard-response,176,158239,0.0-3.1-34.1,,<div class = centerbox><div class = fixation>+</div></div>,,test_ITI,126.44744782674586,,test,126.44744782674586,,,,,,1.0,,"{'min': 0, 'max': 5, 'mean': 0.5}",,,,,
177,,html-keyboard-response,177,158744,0.0-3.1-35.1,,<div class = centerbox><div class = fixation>+</div></div>,,test_fixation,500.0,,test,500.0,,,,,,,,,,,,,
178,,html-keyboard-response,178,160251,0.0-3.1-36.1,,"<div class = bigbox><div class = centerbox><div class = flankerLeft_2><div class = cue-text><img class = center src=""/static/experiments/flanker_rdoc/images/F.png""></img></div></div><div class = flankerLeft_1><div class = cue-text><img class = center src=""/static/experiments/flanker_rdoc/images/F.png""></img></div></div><div class = flankerMiddle><div class = cue-text><img class = center src=""/static/experiments/flanker_rdoc/images/H.png""></img></div></div><div class = flankerRight_1><div class = cue-text><img class = center src=""/static/experiments/flanker_rdoc/images/F.png""></img></div></div><div class = flankerRight_2><div class = cue-text><img class = center src=""/static/experiments/flanker_rdoc/images/F.png""></img></div></div></div></div>",,test_trial,1000.0,,test,1500.0,",",incongruent,F,H,"[',', '.']",1.0,0,,,,1.0,,
179,,html-keyboard-response,179,160425,0.0-3.1-37.1,,<div class = centerbox><div class = fixation>+</div></div>,,test_ITI,170.59809494819712,,test,170.59809494819712,,,,,,1.0,,"{'min': 0, 'max': 5, 'mean': 0.5}",,,,,
180,,html-keyboard-response,180,160928,0.0-3.1-38.1,,<div class = centerbox><div class = fixation>+</div></div>,,test_fixation,500.0,,test,500.0,,,,,,,,,,,,,
181,,html-keyboard-response,181,162435,0.0-3.1-39.1,,"<div class = bigbox><div class = centerbox><div class = flankerLeft_2><div class = cue-text><img class = center src=""/static/experiments/flanker_rdoc/images/F.png""></img></div></div><div class = flankerLeft_1><div class = cue-text><img class = center src=""/static/experiments/flanker_rdoc/images/F.png""></img></div></div><div class = flankerMiddle><div class = cue-text><img class = center src=""/static/experiments/flanker_rdoc/images/H.png""></img></div></div><div class = flankerRight_1><div class = cue-text><img class = center src=""/static/experiments/flanker_rdoc/images/F.png""></img></div></div><div class = flankerRight_2><div class = cue-text><img class = center src=""/static/experiments/flanker_rdoc/images/F.png""></img></div></div></div></div>",,test_trial,1000.0,,test,1500.0,",",incongruent,F,H,"[',', '.']",1.0,0,,,,1.0,,
182,,html-keyboard-response,182,162594,0.0-3.1-40.1,,<div class = centerbox><div class = fixation>+</div></div>,,test_ITI,152.58525306560264,,test,152.58525306560264,,,,,,1.0,,"{'min': 0, 'max': 5, 'mean': 0.5}",,,,,
183,,html-keyboard-response,183,163095,0.0-3.1-41.1,,<div class = centerbox><div class = fixation>+</div></div>,,test_fixation,500.0,,test,500.0,,,,,,,,,,,,,
184,,html-keyboard-response,184,164604,0.0-3.1-42.1,,"<div class = bigbox><div class = centerbox><div class = flankerLeft_2><div class = cue-text><img class = center src=""/static/experiments/flanker_rdoc/images/F.png""></img></div></div><div class = flankerLeft_1><div class = cue-text><img class = center src=""/static/experiments/flanker_rdoc/images/F.png""></img></div></div><div class = flankerMiddle><div class = cue-text><img class = center src=""/static/experiments/flanker_rdoc/images/F.png""></img></div></div><div class = flankerRight_1><div class = cue-text><img class = center src=""/static/experiments/flanker_rdoc/images/F.png""></img></div></div><div class = flankerRight_2><div class = cue-text><img class = center src=""/static/experiments/flanker_rdoc/images/F.png""></img></div></div></div></div>",,test_trial,1000.0,,test,1500.0,.,congruent,F,F,"[',', '.']",1.0,0,,,,1.0,,
185,,html-keyboard-response,185,165072,0.0-3.1-43.1,,<div class = centerbox><div class = fixation>+</div></div>,,test_ITI,462.5013842773942,,test,462.5013842773942,,,,,,1.0,,"{'min': 0, 'max': 5, 'mean': 0.5}",,,,,
186,,html-keyboard-response,186,165577,0.0-3.1-44.1,,<div class = centerbox><div class = fixation>+</div></div>,,test_fixation,500.0,,test,500.0,,,,,,,,,,,,,
187,,html-keyboard-response,187,167080,0.0-3.1-45.1,,"<div class = bigbox><div class = centerbox><div class = flankerLeft_2><div class = cue-text><img class = center src=""/static/experiments/flanker_rdoc/images/H.png""></img></div></div><div class = flankerLeft_1><div class = cue-text><img class = center src=""/static/experiments/flanker_rdoc/images/H.png""></img></div></div><div class = flankerMiddle><div class = cue-text><img class = center src=""/static/experiments/flanker_rdoc/images/H.png""></img></div></div><div class = flankerRight_1><div class = cue-text><img class = center src=""/static/experiments/flanker_rdoc/images/H.png""></img></div></div><div class = flankerRight_2><div class = cue-text><img class = center src=""/static/experiments/flanker_rdoc/images/H.png""></img></div></div></div></div>",,test_trial,1000.0,,test,1500.0,",",congruent,H,H,"[',', '.']",1.0,0,,,,1.0,,
188,,html-keyboard-response,188,167221,0.0-3.1-46.1,,<div class = centerbox><div class = fixation>+</div></div>,,test_ITI,135.16768375082114,,test,135.16768375082114,,,,,,1.0,,"{'min': 0, 'max': 5, 'mean': 0.5}",,,,,
189,,html-keyboard-response,189,167723,0.0-3.1-47.1,,<div class = centerbox><div class = fixation>+</div></div>,,test_fixation,500.0,,test,500.0,,,,,,,,,,,,,
190,,html-keyboard-response,190,169230,0.0-3.1-48.1,,"<div class = bigbox><div class = centerbox><div class = flankerLeft_2><div class = cue-text><img class = center src=""/static/experiments/flanker_rdoc/images/F.png""></img></div></div><div class = flankerLeft_1><div class = cue-text><img class = center src=""/static/experiments/flanker_rdoc/images/F.png""></img></div></div><div class = flankerMiddle><div class = cue-text><img class = center src=""/static/experiments/flanker_rdoc/images/H.png""></img></div></div><div class = flankerRight_1><div class = cue-text><img class = center src=""/static/experiments/flanker_rdoc/images/F.png""></img></div></div><div class = flankerRight_2><div class = cue-text><img class = center src=""/static/experiments/flanker_rdoc/images/F.png""></img></div></div></div></div>",,test_trial,1000.0,,test,1500.0,",",incongruent,F,H,"[',', '.']",1.0,0,,,,1.0,,
191,,html-keyboard-response,191,169645,0.0-3.1-49.1,,<div class = centerbox><div class = fixation>+</div></div>,,test_ITI,409.4303945735628,,test,409.4303945735628,,,,,,1.0,,"{'min': 0, 'max': 5, 'mean': 0.5}",,,,,
192,,html-keyboard-response,192,170150,0.0-3.1-50.1,,<div class = centerbox><div class = fixation>+</div></div>,,test_fixation,500.0,,test,500.0,,,,,,,,,,,,,
193,,html-keyboard-response,193,171657,0.0-3.1-51.1,,"<div class = bigbox><div class = centerbox><div class = flankerLeft_2><div class = cue-text><img class = center src=""/static/experiments/flanker_rdoc/images/H.png""></img></div></div><div class = flankerLeft_1><div class = cue-text><img class = center src=""/static/experiments/flanker_rdoc/images/H.png""></img></div></div><div class = flankerMiddle><div class = cue-text><img class = center src=""/static/experiments/flanker_rdoc/images/F.png""></img></div></div><div class = flankerRight_1><div class = cue-text><img class = center src=""/static/experiments/flanker_rdoc/images/H.png""></img></div></div><div class = flankerRight_2><div class = cue-text><img class = center src=""/static/experiments/flanker_rdoc/images/H.png""></img></div></div></div></div>",,test_trial,1000.0,,test,1500.0,.,incongruent,H,F,"[',', '.']",1.0,0,,,,1.0,,
194,,html-keyboard-response,194,172206,0.0-3.1-52.1,,<div class = centerbox><div class = fixation>+</div></div>,,test_ITI,547.3063185343904,,test,547.3063185343904,,,,,,1.0,,"{'min': 0, 'max': 5, 'mean': 0.5}",,,,,
195,,html-keyboard-response,195,172710,0.0-3.1-53.1,,<div class = centerbox><div class = fixation>+</div></div>,,test_fixation,500.0,,test,500.0,,,,,,,,,,,,,
196,,html-keyboard-response,196,174214,0.0-3.1-54.1,,"<div class = bigbox><div class = centerbox><div class = flankerLeft_2><div class = cue-text><img class = center src=""/static/experiments/flanker_rdoc/images/F.png""></img></div></div><div class = flankerLeft_1><div class = cue-text><img class = center src=""/static/experiments/flanker_rdoc/images/F.png""></img></div></div><div class = flankerMiddle><div class = cue-text><img class = center src=""/static/experiments/flanker_rdoc/images/F.png""></img></div></div><div class = flankerRight_1><div class = cue-text><img class = center src=""/static/experiments/flanker_rdoc/images/F.png""></img></div></div><div class = flankerRight_2><div class = cue-text><img class = center src=""/static/experiments/flanker_rdoc/images/F.png""></img></div></div></div></div>",,test_trial,1000.0,,test,1500.0,.,congruent,F,F,"[',', '.']",1.0,0,,,,1.0,,
197,,html-keyboard-response,197,174257,0.0-3.1-55.1,,<div class = centerbox><div class = fixation>+</div></div>,,test_ITI,37.412737648386994,,test,37.412737648386994,,,,,,1.0,,"{'min': 0, 'max': 5, 'mean': 0.5}",,,,,
198,,html-keyboard-response,198,174763,0.0-3.1-56.1,,<div class = centerbox><div class = fixation>+</div></div>,,test_fixation,500.0,,test,500.0,,,,,,,,,,,,,
199,,html-keyboard-response,199,176270,0.0-3.1-57.1,,"<div class = bigbox><div class = centerbox><div class = flankerLeft_2><div class = cue-text><img class = center src=""/static/experiments/flanker_rdoc/images/F.png""></img></div></div><div class = flankerLeft_1><div class = cue-text><img class = center src=""/static/experiments/flanker_rdoc/images/F.png""></img></div></div><div class = flankerMiddle><div class = cue-text><img class = center src=""/static/experiments/flanker_rdoc/images/F.png""></img></div></div><div class = flankerRight_1><div class = cue-text><img class = center src=""/static/experiments/flanker_rdoc/images/F.png""></img></div></div><div class = flankerRight_2><div class = cue-text><img class = center src=""/static/experiments/flanker_rdoc/images/F.png""></img></div></div></div></div>",,test_trial,1000.0,,test,1500.0,.,congruent,F,F,"[',', '.']",1.0,0,,,,1.0,,
200,,html-keyboard-response,200,177642,0.0-3.1-58.1,,<div class = centerbox><div class = fixation>+</div></div>,,test_ITI,1369.5651058869755,,test,1369.5651058869755,,,,,,1.0,,"{'min': 0, 'max': 5, 'mean': 0.5}",,,,,
201,,html-keyboard-response,201,178145,0.0-3.1-59.1,,<div class = centerbox><div class = fixation>+</div></div>,,test_fixation,500.0,,test,500.0,,,,,,,,,,,,,
202,,html-keyboard-response,202,179652,0.0-3.1-60.1,,"<div class = bigbox><div class = centerbox><div class = flankerLeft_2><div class = cue-text><img class = center src=""/static/experiments/flanker_rdoc/images/H.png""></img></div></div><div class = flankerLeft_1><div class = cue-text><img class = center src=""/static/experiments/flanker_rdoc/images/H.png""></img></div></div><div class = flankerMiddle><div class = cue-text><img class = center src=""/static/experiments/flanker_rdoc/images/F.png""></img></div></div><div class = flankerRight_1><div class = cue-text><img class = center src=""/static/experiments/flanker_rdoc/images/H.png""></img></div></div><div class = flankerRight_2><div class = cue-text><img class = center src=""/static/experiments/flanker_rdoc/images/H.png""></img></div></div></div></div>",,test_trial,1000.0,,test,1500.0,.,incongruent,H,F,"[',', '.']",1.0,0,,,,1.0,,
203,,html-keyboard-response,203,179869,0.0-3.1-61.1,,<div class = centerbox><div class = fixation>+</div></div>,,test_ITI,214.03969675848876,,test,214.03969675848876,,,,,,1.0,,"{'min': 0, 'max': 5, 'mean': 0.5}",,,,,
204,,html-keyboard-response,204,180374,0.0-3.1-62.1,,<div class = centerbox><div class = fixation>+</div></div>,,test_fixation,500.0,,test,500.0,,,,,,,,,,,,,
205,,html-keyboard-response,205,181881,0.0-3.1-63.1,,"<div class = bigbox><div class = centerbox><div class = flankerLeft_2><div class = cue-text><img class = center src=""/static/experiments/flanker_rdoc/images/H.png""></img></div></div><div class = flankerLeft_1><div class = cue-text><img class = center src=""/static/experiments/flanker_rdoc/images/H.png""></img></div></div><div class = flankerMiddle><div class = cue-text><img class = center src=""/static/experiments/flanker_rdoc/images/F.png""></img></div></div><div class = flankerRight_1><div class = cue-text><img class = center src=""/static/experiments/flanker_rdoc/images/H.png""></img></div></div><div class = flankerRight_2><div class = cue-text><img class = center src=""/static/experiments/flanker_rdoc/images/H.png""></img></div></div></div></div>",,test_trial,1000.0,,test,1500.0,.,incongruent,H,F,"[',', '.']",1.0,0,,,,1.0,,
206,,html-keyboard-response,206,182344,0.0-3.1-64.1,,<div class = centerbox><div class = fixation>+</div></div>,,test_ITI,460.8200195213859,,test,460.8200195213859,,,,,,1.0,,"{'min': 0, 'max': 5, 'mean': 0.5}",,,,,
207,,html-keyboard-response,207,182846,0.0-3.1-65.1,,<div class = centerbox><div class = fixation>+</div></div>,,test_fixation,500.0,,test,500.0,,,,,,,,,,,,,
208,,html-keyboard-response,208,184353,0.0-3.1-66.1,,"<div class = bigbox><div class = centerbox><div class = flankerLeft_2><div class = cue-text><img class = center src=""/static/experiments/flanker_rdoc/images/H.png""></img></div></div><div class = flankerLeft_1><div class = cue-text><img class = center src=""/static/experiments/flanker_rdoc/images/H.png""></img></div></div><div class = flankerMiddle><div class = cue-text><img class = center src=""/static/experiments/flanker_rdoc/images/H.png""></img></div></div><div class = flankerRight_1><div class = cue-text><img class = center src=""/static/experiments/flanker_rdoc/images/H.png""></img></div></div><div class = flankerRight_2><div class = cue-text><img class = center src=""/static/experiments/flanker_rdoc/images/H.png""></img></div></div></div></div>",,test_trial,1000.0,,test,1500.0,",",congruent,H,H,"[',', '.']",1.0,0,,,,1.0,,
209,,html-keyboard-response,209,184396,0.0-3.1-67.1,,<div class = centerbox><div class = fixation>+</div></div>,,test_ITI,40.73300762813945,,test,40.73300762813945,,,,,,1.0,,"{'min': 0, 'max': 5, 'mean': 0.5}",,,,,
210,,html-keyboard-response,210,184901,0.0-3.1-68.1,,<div class = centerbox><div class = fixation>+</div></div>,,test_fixation,500.0,,test,500.0,,,,,,,,,,,,,
211,,html-keyboard-response,211,186408,0.0-3.1-69.1,,"<div class = bigbox><div class = centerbox><div class = flankerLeft_2><div class = cue-text><img class = center src=""/static/experiments/flanker_rdoc/images/H.png""></img></div></div><div class = flankerLeft_1><div class = cue-text><img class = center src=""/static/experiments/flanker_rdoc/images/H.png""></img></div></div><div class = flankerMiddle><div class = cue-text><img class = center src=""/static/experiments/flanker_rdoc/images/F.png""></img></div></div><div class = flankerRight_1><div class = cue-text><img class = center src=""/static/experiments/flanker_rdoc/images/H.png""></img></div></div><div class = flankerRight_2><div class = cue-text><img class = center src=""/static/experiments/flanker_rdoc/images/H.png""></img></div></div></div></div>",,test_trial,1000.0,,test,1500.0,.,incongruent,H,F,"[',', '.']",1.0,0,,,,1.0,,
212,,html-keyboard-response,212,187275,0.0-3.1-70.1,,<div class = centerbox><div class = fixation>+</div></div>,,test_ITI,861.0229649406019,,test,861.0229649406019,,,,,,1.0,,"{'min': 0, 'max': 5, 'mean': 0.5}",,,,,
213,,html-keyboard-response,213,187779,0.0-3.1-71.1,,<div class = centerbox><div class = fixation>+</div></div>,,test_fixation,500.0,,test,500.0,,,,,,,,,,,,,
214,,html-keyboard-response,214,189286,0.0-3.1-72.1,,"<div class = bigbox><div class = centerbox><div class = flankerLeft_2><div class = cue-text><img class = center src=""/static/experiments/flanker_rdoc/images/H.png""></img></div></div><div class = flankerLeft_1><div class = cue-text><img class = center src=""/static/experiments/flanker_rdoc/images/H.png""></img></div></div><div class = flankerMiddle><div class = cue-text><img class = center src=""/static/experiments/flanker_rdoc/images/H.png""></img></div></div><div class = flankerRight_1><div class = cue-text><img class = center src=""/static/experiments/flanker_rdoc/images/H.png""></img></div></div><div class = flankerRight_2><div class = cue-text><img class = center src=""/static/experiments/flanker_rdoc/images/H.png""></img></div></div></div></div>",,test_trial,1000.0,,test,1500.0,",",congruent,H,H,"[',', '.']",1.0,0,,,,1.0,,
215,,html-keyboard-response,215,191814,0.0-3.1-73.1,,<div class = centerbox><div class = fixation>+</div></div>,,test_ITI,2524.2993431200166,,test,2524.2993431200166,,,,,,1.0,,"{'min': 0, 'max': 5, 'mean': 0.5}",,,,,
216,,html-keyboard-response,216,192317,0.0-3.1-74.1,,<div class = centerbox><div class = fixation>+</div></div>,,test_fixation,500.0,,test,500.0,,,,,,,,,,,,,
217,,html-keyboard-response,217,193824,0.0-3.1-75.1,,"<div class = bigbox><div class = centerbox><div class = flankerLeft_2><div class = cue-text><img class = center src=""/static/experiments/flanker_rdoc/images/F.png""></img></div></div><div class = flankerLeft_1><div class = cue-text><img class = center src=""/static/experiments/flanker_rdoc/images/F.png""></img></div></div><div class = flankerMiddle><div class = cue-text><img class = center src=""/static/experiments/flanker_rdoc/images/H.png""></img></div></div><div class = flankerRight_1><div class = cue-text><img class = center src=""/static/experiments/flanker_rdoc/images/F.png""></img></div></div><div class = flankerRight_2><div class = cue-text><img class = center src=""/static/experiments/flanker_rdoc/images/F.png""></img></div></div></div></div>",,test_trial,1000.0,,test,1500.0,",",incongruent,F,H,"[',', '.']",1.0,0,,,,1.0,,
218,,html-keyboard-response,218,193864,0.0-3.1-76.1,,<div class = centerbox><div class = fixation>+</div></div>,,test_ITI,34.601417251393016,,test,34.601417251393016,,,,,,1.0,,"{'min': 0, 'max': 5, 'mean': 0.5}",,,,,
219,,html-keyboard-response,219,194365,0.0-3.1-77.1,,<div class = centerbox><div class = fixation>+</div></div>,,test_fixation,500.0,,test,500.0,,,,,,,,,,,,,
220,,html-keyboard-response,220,195873,0.0-3.1-78.1,,"<div class = bigbox><div class = centerbox><div class = flankerLeft_2><div class = cue-text><img class = center src=""/static/experiments/flanker_rdoc/images/F.png""></img></div></div><div class = flankerLeft_1><div class = cue-text><img class = center src=""/static/experiments/flanker_rdoc/images/F.png""></img></div></div><div class = flankerMiddle><div class = cue-text><img class = center src=""/static/experiments/flanker_rdoc/images/H.png""></img></div></div><div class = flankerRight_1><div class = cue-text><img class = center src=""/static/experiments/flanker_rdoc/images/F.png""></img></div></div><div class = flankerRight_2><div class = cue-text><img class = center src=""/static/experiments/flanker_rdoc/images/F.png""></img></div></div></div></div>",,test_trial,1000.0,,test,1500.0,",",incongruent,F,H,"[',', '.']",1.0,0,,,,1.0,,
221,,html-keyboard-response,221,196244,0.0-3.1-79.1,,<div class = centerbox><div class = fixation>+</div></div>,,test_ITI,365.3150036588914,,test,365.3150036588914,,,,,,1.0,,"{'min': 0, 'max': 5, 'mean': 0.5}",,,,,
222,,html-keyboard-response,222,196750,0.0-3.1-80.1,,<div class = centerbox><div class = fixation>+</div></div>,,test_fixation,500.0,,test,500.0,,,,,,,,,,,,,
223,,html-keyboard-response,223,198256,0.0-3.1-81.1,,"<div class = bigbox><div class = centerbox><div class = flankerLeft_2><div class = cue-text><img class = center src=""/static/experiments/flanker_rdoc/images/H.png""></img></div></div><div class = flankerLeft_1><div class = cue-text><img class = center src=""/static/experiments/flanker_rdoc/images/H.png""></img></div></div><div class = flankerMiddle><div class = cue-text><img class = center src=""/static/experiments/flanker_rdoc/images/H.png""></img></div></div><div class = flankerRight_1><div class = cue-text><img class = center src=""/static/experiments/flanker_rdoc/images/H.png""></img></div></div><div class = flankerRight_2><div class = cue-text><img class = center src=""/static/experiments/flanker_rdoc/images/H.png""></img></div></div></div></div>",,test_trial,1000.0,,test,1500.0,",",congruent,H,H,"[',', '.']",1.0,0,,,,1.0,,
224,,html-keyboard-response,224,198865,0.0-3.1-82.1,,<div class = centerbox><div class = fixation>+</div></div>,,test_ITI,602.8242614033416,,test,602.8242614033416,,,,,,1.0,,"{'min': 0, 'max': 5, 'mean': 0.5}",,,,,
225,,html-keyboard-response,225,199369,0.0-3.1-83.1,,<div class = centerbox><div class = fixation>+</div></div>,,test_fixation,500.0,,test,500.0,,,,,,,,,,,,,
226,,html-keyboard-response,226,200876,0.0-3.1-84.1,,"<div class = bigbox><div class = centerbox><div class = flankerLeft_2><div class = cue-text><img class = center src=""/static/experiments/flanker_rdoc/images/F.png""></img></div></div><div class = flankerLeft_1><div class = cue-text><img class = center src=""/static/experiments/flanker_rdoc/images/F.png""></img></div></div><div class = flankerMiddle><div class = cue-text><img class = center src=""/static/experiments/flanker_rdoc/images/H.png""></img></div></div><div class = flankerRight_1><div class = cue-text><img class = center src=""/static/experiments/flanker_rdoc/images/F.png""></img></div></div><div class = flankerRight_2><div class = cue-text><img class = center src=""/static/experiments/flanker_rdoc/images/F.png""></img></div></div></div></div>",,test_trial,1000.0,,test,1500.0,",",incongruent,F,H,"[',', '.']",1.0,0,,,,1.0,,
227,,html-keyboard-response,227,202043,0.0-3.1-85.1,,<div class = centerbox><div class = fixation>+</div></div>,,test_ITI,1163.1232329697248,,test,1163.1232329697248,,,,,,1.0,,"{'min': 0, 'max': 5, 'mean': 0.5}",,,,,
228,,html-keyboard-response,228,202544,0.0-3.1-86.1,,<div class = centerbox><div class = fixation>+</div></div>,,test_fixation,500.0,,test,500.0,,,,,,,,,,,,,
229,,html-keyboard-response,229,204047,0.0-3.1-87.1,,"<div class = bigbox><div class = centerbox><div class = flankerLeft_2><div class = cue-text><img class = center src=""/static/experiments/flanker_rdoc/images/F.png""></img></div></div><div class = flankerLeft_1><div class = cue-text><img class = center src=""/static/experiments/flanker_rdoc/images/F.png""></img></div></div><div class = flankerMiddle><div class = cue-text><img class = center src=""/static/experiments/flanker_rdoc/images/F.png""></img></div></div><div class = flankerRight_1><div class = cue-text><img class = center src=""/static/experiments/flanker_rdoc/images/F.png""></img></div></div><div class = flankerRight_2><div class = cue-text><img class = center src=""/static/experiments/flanker_rdoc/images/F.png""></img></div></div></div></div>",,test_trial,1000.0,,test,1500.0,.,congruent,F,F,"[',', '.']",1.0,0,,,,1.0,,
230,,html-keyboard-response,230,204290,0.0-3.1-88.1,,<div class = centerbox><div class = fixation>+</div></div>,,test_ITI,237.22798575254058,,test,237.22798575254058,,,,,,1.0,,"{'min': 0, 'max': 5, 'mean': 0.5}",,,,,
231,,html-keyboard-response,231,204794,0.0-3.1-89.1,,<div class = centerbox><div class = fixation>+</div></div>,,test_fixation,500.0,,test,500.0,,,,,,,,,,,,,
232,,html-keyboard-response,232,206300,0.0-3.1-90.1,,"<div class = bigbox><div class = centerbox><div class = flankerLeft_2><div class = cue-text><img class = center src=""/static/experiments/flanker_rdoc/images/F.png""></img></div></div><div class = flankerLeft_1><div class = cue-text><img class = center src=""/static/experiments/flanker_rdoc/images/F.png""></img></div></div><div class = flankerMiddle><div class = cue-text><img class = center src=""/static/experiments/flanker_rdoc/images/F.png""></img></div></div><div class = flankerRight_1><div class = cue-text><img class = center src=""/static/experiments/flanker_rdoc/images/F.png""></img></div></div><div class = flankerRight_2><div class = cue-text><img class = center src=""/static/experiments/flanker_rdoc/images/F.png""></img></div></div></div></div>",,test_trial,1000.0,,test,1500.0,.,congruent,F,F,"[',', '.']",1.0,0,,,,1.0,,
233,,html-keyboard-response,233,206354,0.0-3.1-91.1,,<div class = centerbox><div class = fixation>+</div></div>,,test_ITI,49.39354438016574,,test,49.39354438016574,,,,,,1.0,,"{'min': 0, 'max': 5, 'mean': 0.5}",,,,,
234,,html-keyboard-response,234,206858,0.0-3.1-92.1,,<div class = centerbox><div class = fixation>+</div></div>,,test_fixation,500.0,,test,500.0,,,,,,,,,,,,,
235,,html-keyboard-response,235,208365,0.0-3.1-93.1,,"<div class = bigbox><div class = centerbox><div class = flankerLeft_2><div class = cue-text><img class = center src=""/static/experiments/flanker_rdoc/images/H.png""></img></div></div><div class = flankerLeft_1><div class = cue-text><img class = center src=""/static/experiments/flanker_rdoc/images/H.png""></img></div></div><div class = flankerMiddle><div class = cue-text><img class = center src=""/static/experiments/flanker_rdoc/images/F.png""></img></div></div><div class = flankerRight_1><div class = cue-text><img class = center src=""/static/experiments/flanker_rdoc/images/H.png""></img></div></div><div class = flankerRight_2><div class = cue-text><img class = center src=""/static/experiments/flanker_rdoc/images/H.png""></img></div></div></div></div>",,test_trial,1000.0,,test,1500.0,.,incongruent,H,F,"[',', '.']",1.0,0,,,,1.0,,
236,,html-keyboard-response,236,211135,0.0-3.1-94.1,,<div class = centerbox><div class = fixation>+</div></div>,,test_ITI,2763.164620273993,,test,2763.164620273993,,,,,,1.0,,"{'min': 0, 'max': 5, 'mean': 0.5}",,,,,
237,,html-keyboard-response,237,211640,0.0-3.1-95.1,,<div class = centerbox><div class = fixation>+</div></div>,,test_fixation,500.0,,test,500.0,,,,,,,,,,,,,
