,success,trial_type,trial_index,time_elapsed,internal_node_id,rt,stimulus,response,trial_id,trial_duration,view_history,exp_stage,stimulus_duration,block_num,correct_response,condition,choices,correct_trial,ITIParams,current_question,current_key_answer,exp_id,attention_check_percent
0,True,fullscreen,0,2078,0.0-0.0,,,,,,,,,,,,,,,,,,
1,,html-keyboard-response,1,2355,0.0-1.0-0.0,274.0,"<div class = centerbox><p class = center-block-text>
    
  <p class=""center-block-text"">
    Welcome! This experiment will take around 10 minutes.
  </p>
  <p class=""center-block-text"">
    To avoid technical issues, please keep the experiment tab (on Chrome or Firefox) active and in fullscreen mode for the whole duration of each task.
  </p>
  <p class=""center-block-text""> Press <i>enter</i> to begin.</p>

    </p></div>",enter,instruction_feedback,180000.0,,,,,,,,,,,,,
2,,instructions,2,6121,0.0-1.0-1.0,3764.0,,,instructions,,"[{'page_index': 0, 'viewing_time': 3764}]",,,,,,,,,,,,
3,,html-keyboard-response,3,7224,0.0-2.0-0.0,1101.0,"<div class = bigbox><div class = picture_box><p class = block-text>
    <div class = centerbox><p class = center-block-text>Press <i>enter</i> to begin practice.</p></div>
    </font></p></div></div>",enter,practice_feedback,60000.0,,practice,,,,,,,,,,,
4,,html-keyboard-response,4,7727,0.0-2.0-1.0,,<div class = centerbox><div class = fixation>+</div></div>,,practice_fixation,500.0,,practice,500.0,0.0,,,,,,,,,
5,,html-keyboard-response,5,9234,0.0-2.0-2.0,,<div class = bigbox><div class = centerbox><div class = gng_number><div class = cue-text><div id = stim2></div></div></div></div></div>,,practice_trial,1500.0,,practice,1000.0,0.0,,nogo,"[',']",1,,,,,
6,,html-keyboard-response,6,9738,0.0-2.0-3.0,,<div class = center-box><div class = center-text>Correct!</div></div>,,practice_feedback,500.0,,,,,,,,,,,,,
7,,html-keyboard-response,7,9999,0.0-2.0-4.0,,<div class = centerbox><div class = fixation>+</div></div>,,practice_ITI,257.8950542767187,,practice,257.8950542767187,0.0,,,,,"{'min': 0, 'max': 5, 'mean': 0.5}",,,,
8,,html-keyboard-response,8,10502,0.0-2.0-5.0,,<div class = centerbox><div class = fixation>+</div></div>,,practice_fixation,500.0,,practice,500.0,0.0,,,,,,,,,
9,,html-keyboard-response,9,12007,0.0-2.0-6.0,379.0,<div class = bigbox><div class = centerbox><div class = gng_number><div class = cue-text><div  id = stim1></div></div></div></div></div>,",",practice_trial,1500.0,,practice,1000.0,0.0,",",go,"[',']",1,,,,,
10,,html-keyboard-response,10,12510,0.0-2.0-7.0,,<div class = center-box><divp class = center-text>Correct!</div></div>,,practice_feedback,500.0,,,,,,,,,,,,,
11,,html-keyboard-response,11,13117,0.0-2.0-8.0,,<div class = centerbox><div class = fixation>+</div></div>,,practice_ITI,601.1883628305543,,practice,601.1883628305543,0.0,,,,,"{'min': 0, 'max': 5, 'mean': 0.5}",,,,
12,,html-keyboard-response,12,13620,0.0-2.0-9.0,,<div class = centerbox><div class = fixation>+</div></div>,,practice_fixation,500.0,,practice,500.0,0.0,,,,,,,,,
13,,html-keyboard-response,13,15127,0.0-2.0-10.0,380.0,<div class = bigbox><div class = centerbox><div class = gng_number><div class = cue-text><div  id = stim1></div></div></div></div></div>,",",practice_trial,1500.0,,practice,1000.0,0.0,",",go,"[',']",1,,,,,
14,,html-keyboard-response,14,15634,0.0-2.0-11.0,,<div class = center-box><divp class = center-text>Correct!</div></div>,,practice_feedback,500.0,,,,,,,,,,,,,
15,,html-keyboard-response,15,16080,0.0-2.0-12.0,,<div class = centerbox><div class = fixation>+</div></div>,,practice_ITI,443.2700216363475,,practice,443.2700216363475,0.0,,,,,"{'min': 0, 'max': 5, 'mean': 0.5}",,,,
16,,html-keyboard-response,16,16584,0.0-2.0-13.0,,<div class = centerbox><div class = fixation>+</div></div>,,practice_fixation,500.0,,practice,500.0,0.0,,,,,,,,,
17,,html-keyboard-response,17,18091,0.0-2.0-14.0,346.0,<div class = bigbox><div class = centerbox><div class = gng_number><div class = cue-text><div  id = stim1></div></div></div></div></div>,",",practice_trial,1500.0,,practice,1000.0,0.0,",",go,"[',']",1,,,,,
18,,html-keyboard-response,18,18595,0.0-2.0-15.0,,<div class = center-box><divp class = center-text>Correct!</div></div>,,practice_feedback,500.0,,,,,,,,,,,,,
19,,html-keyboard-response,19,19702,0.0-2.0-16.0,,<div class = centerbox><div class = fixation>+</div></div>,,practice_ITI,1100.1011603390905,,practice,1100.1011603390905,0.0,,,,,"{'min': 0, 'max': 5, 'mean': 0.5}",,,,
20,,html-keyboard-response,20,20206,0.0-2.0-17.0,,<div class = centerbox><div class = fixation>+</div></div>,,practice_fixation,500.0,,practice,500.0,0.0,,,,,,,,,
21,,html-keyboard-response,21,21712,0.0-2.0-18.0,281.0,<div class = bigbox><div class = centerbox><div class = gng_number><div class = cue-text><div  id = stim1></div></div></div></div></div>,",",practice_trial,1500.0,,practice,1000.0,0.0,",",go,"[',']",1,,,,,
22,,html-keyboard-response,22,22217,0.0-2.0-19.0,,<div class = center-box><divp class = center-text>Correct!</div></div>,,practice_feedback,500.0,,,,,,,,,,,,,
23,,html-keyboard-response,23,22416,0.0-2.0-20.0,,<div class = centerbox><div class = fixation>+</div></div>,,practice_ITI,193.58902058199618,,practice,193.58902058199618,0.0,,,,,"{'min': 0, 'max': 5, 'mean': 0.5}",,,,
24,,html-keyboard-response,24,22920,0.0-2.0-21.0,,<div class = centerbox><div class = fixation>+</div></div>,,practice_fixation,500.0,,practice,500.0,0.0,,,,,,,,,
25,,html-keyboard-response,25,24426,0.0-2.0-22.0,405.0,<div class = bigbox><div class = centerbox><div class = gng_number><div class = cue-text><div  id = stim1></div></div></div></div></div>,",",practice_trial,1500.0,,practice,1000.0,0.0,",",go,"[',']",1,,,,,
26,,html-keyboard-response,26,24931,0.0-2.0-23.0,,<div class = center-box><divp class = center-text>Correct!</div></div>,,practice_feedback,500.0,,,,,,,,,,,,,
27,,html-keyboard-response,27,25136,0.0-2.0-24.0,,<div class = centerbox><div class = fixation>+</div></div>,,practice_ITI,199.46427909315798,,practice,199.46427909315798,0.0,,,,,"{'min': 0, 'max': 5, 'mean': 0.5}",,,,
28,,html-keyboard-response,28,25639,0.0-2.0-25.0,,<div class = centerbox><div class = fixation>+</div></div>,,practice_fixation,500.0,,practice,500.0,0.0,,,,,,,,,
29,,html-keyboard-response,29,27146,0.0-2.0-26.0,365.0,<div class = bigbox><div class = centerbox><div class = gng_number><div class = cue-text><div  id = stim1></div></div></div></div></div>,",",practice_trial,1500.0,,practice,1000.0,0.0,",",go,"[',']",1,,,,,
30,,html-keyboard-response,30,27650,0.0-2.0-27.0,,<div class = center-box><divp class = center-text>Correct!</div></div>,,practice_feedback,500.0,,,,,,,,,,,,,
31,,html-keyboard-response,31,27886,0.0-2.0-28.0,,<div class = centerbox><div class = fixation>+</div></div>,,practice_ITI,231.73107092088048,,practice,231.73107092088048,0.0,,,,,"{'min': 0, 'max': 5, 'mean': 0.5}",,,,
32,,html-keyboard-response,32,28792,0.0-3.0-0.0,903.0,"<div class = bigbox><div class = picture_box><p class = block-text>
    
      <div class=""centerbox"">
        <p class=""center-block-text"">We will now start the test portion.</p>
        <p class=""block-text"">Keep your <b>index finger</b> on the <b>comma key (,)</b></p>
        <p class=""block-text"">Press <i>enter</i> to continue.</p>
     </div>
    
    </font></p></div></div>",enter,test_feedback,60000.0,,test,,,,,,,,,,,
33,,html-keyboard-response,33,30304,0.0-3.0-1.0-0.0,1510.0,,b,test_attention_check,,,test,,0.0,,,,False,,<p class='block-text'>Press the key for the last letter of the English alphabet.</p> <div class=block-text>This screen will advance automatically in 1 minute.</div>,90.0,,
34,,html-keyboard-response,34,30806,0.0-3.0-2.0,,<div class = centerbox><div class = fixation>+</div></div>,,test_fixation,500.0,,test,500.0,0.0,,,,,,,,,
35,,html-keyboard-response,35,32313,0.0-3.0-3.0,536.0,<div class = bigbox><div class = centerbox><div class = gng_number><div class = cue-text><div  id = stim1></div></div></div></div></div>,",",test_trial,1500.0,,test,1000.0,0.0,",",go,"[',']",1,,,,,
36,,html-keyboard-response,36,32533,0.0-3.0-4.0,,<div class = centerbox><div class = fixation>+</div></div>,,test_ITI,214.0509908111702,,test,214.0509908111702,0.0,,,,,"{'min': 0, 'max': 5, 'mean': 0.5}",,,,
37,,html-keyboard-response,37,33036,0.0-3.0-5.0,,<div class = centerbox><div class = fixation>+</div></div>,,test_fixation,500.0,,test,500.0,0.0,,,,,,,,,
38,,html-keyboard-response,38,34542,0.0-3.0-6.0,261.0,<div class = bigbox><div class = centerbox><div class = gng_number><div class = cue-text><div  id = stim1></div></div></div></div></div>,",",test_trial,1500.0,,test,1000.0,0.0,",",go,"[',']",1,,,,,
39,,html-keyboard-response,39,35004,0.0-3.0-7.0,,<div class = centerbox><div class = fixation>+</div></div>,,test_ITI,456.5399306180294,,test,456.5399306180294,0.0,,,,,"{'min': 0, 'max': 5, 'mean': 0.5}",,,,
40,,html-keyboard-response,40,35508,0.0-3.0-8.0,,<div class = centerbox><div class = fixation>+</div></div>,,test_fixation,500.0,,test,500.0,0.0,,,,,,,,,
41,,html-keyboard-response,41,37015,0.0-3.0-9.0,,<div class = bigbox><div class = centerbox><div class = gng_number><div class = cue-text><div  id = stim1></div></div></div></div></div>,,test_trial,1500.0,,test,1000.0,0.0,",",go,"[',']",0,,,,,
42,,html-keyboard-response,42,37024,0.0-3.0-10.0,,<div class = centerbox><div class = fixation>+</div></div>,,test_ITI,7.569928744379391,,test,7.569928744379391,0.0,,,,,"{'min': 0, 'max': 5, 'mean': 0.5}",,,,
43,,html-keyboard-response,43,37528,0.0-3.0-11.0,,<div class = centerbox><div class = fixation>+</div></div>,,test_fixation,500.0,,test,500.0,0.0,,,,,,,,,
44,,html-keyboard-response,44,39032,0.0-3.0-12.0,,<div class = bigbox><div class = centerbox><div class = gng_number><div class = cue-text><div  id = stim1></div></div></div></div></div>,,test_trial,1500.0,,test,1000.0,0.0,",",go,"[',']",0,,,,,
45,,html-keyboard-response,45,39037,0.0-3.0-13.0,,<div class = centerbox><div class = fixation>+</div></div>,,test_ITI,2.295666358063228,,test,2.295666358063228,0.0,,,,,"{'min': 0, 'max': 5, 'mean': 0.5}",,,,
46,,html-keyboard-response,46,39540,0.0-3.0-14.0,,<div class = centerbox><div class = fixation>+</div></div>,,test_fixation,500.0,,test,500.0,0.0,,,,,,,,,
47,,html-keyboard-response,47,41042,0.0-3.0-15.0,,<div class = bigbox><div class = centerbox><div class = gng_number><div class = cue-text><div  id = stim1></div></div></div></div></div>,,test_trial,1500.0,,test,1000.0,0.0,",",go,"[',']",0,,,,,
48,,html-keyboard-response,48,41052,0.0-3.0-16.0,,<div class = centerbox><div class = fixation>+</div></div>,,test_ITI,7.411845402377865,,test,7.411845402377865,0.0,,,,,"{'min': 0, 'max': 5, 'mean': 0.5}",,,,
49,,html-keyboard-response,49,41554,0.0-3.0-17.0,,<div class = centerbox><div class = fixation>+</div></div>,,test_fixation,500.0,,test,500.0,0.0,,,,,,,,,
50,,html-keyboard-response,50,43056,0.0-3.0-18.0,,<div class = bigbox><div class = centerbox><div class = gng_number><div class = cue-text><div  id = stim1></div></div></div></div></div>,,test_trial,1500.0,,test,1000.0,0.0,",",go,"[',']",0,,,,,
51,,html-keyboard-response,51,43267,0.0-3.0-19.0,,<div class = centerbox><div class = fixation>+</div></div>,,test_ITI,205.23151412012723,,test,205.23151412012723,0.0,,,,,"{'min': 0, 'max': 5, 'mean': 0.5}",,,,
52,,html-keyboard-response,52,43772,0.0-3.0-20.0,,<div class = centerbox><div class = fixation>+</div></div>,,test_fixation,500.0,,test,500.0,0.0,,,,,,,,,
53,,html-keyboard-response,53,45279,0.0-3.0-21.0,,<div class = bigbox><div class = centerbox><div class = gng_number><div class = cue-text><div id = stim2></div></div></div></div></div>,,test_trial,1500.0,,test,1000.0,0.0,,nogo,"[',']",1,,,,,
54,,html-keyboard-response,54,45325,0.0-3.0-22.0,,<div class = centerbox><div class = fixation>+</div></div>,,test_ITI,40.589890812582176,,test,40.589890812582176,0.0,,,,,"{'min': 0, 'max': 5, 'mean': 0.5}",,,,
55,,html-keyboard-response,55,45827,0.0-3.0-23.0,,<div class = centerbox><div class = fixation>+</div></div>,,test_fixation,500.0,,test,500.0,0.0,,,,,,,,,
56,,html-keyboard-response,56,47331,0.0-3.0-24.0,,<div class = bigbox><div class = centerbox><div class = gng_number><div class = cue-text><div  id = stim1></div></div></div></div></div>,,test_trial,1500.0,,test,1000.0,0.0,",",go,"[',']",0,,,,,
57,,html-keyboard-response,57,49291,0.0-3.0-25.0,,<div class = centerbox><div class = fixation>+</div></div>,,test_ITI,1957.183830249026,,test,1957.183830249026,0.0,,,,,"{'min': 0, 'max': 5, 'mean': 0.5}",,,,
58,,html-keyboard-response,58,49798,0.0-3.0-26.0,,<div class = centerbox><div class = fixation>+</div></div>,,test_fixation,500.0,,test,500.0,0.0,,,,,,,,,
59,,html-keyboard-response,59,51304,0.0-3.0-27.0,,<div class = bigbox><div class = centerbox><div class = gng_number><div class = cue-text><div  id = stim1></div></div></div></div></div>,,test_trial,1500.0,,test,1000.0,0.0,",",go,"[',']",0,,,,,
60,,html-keyboard-response,60,51314,0.0-3.0-28.0,,<div class = centerbox><div class = fixation>+</div></div>,,test_ITI,8.80321911710904,,test,8.80321911710904,0.0,,,,,"{'min': 0, 'max': 5, 'mean': 0.5}",,,,
61,,html-keyboard-response,61,51816,0.0-3.0-29.0,,<div class = centerbox><div class = fixation>+</div></div>,,test_fixation,500.0,,test,500.0,0.0,,,,,,,,,
62,,html-keyboard-response,62,53322,0.0-3.0-30.0,,<div class = bigbox><div class = centerbox><div class = gng_number><div class = cue-text><div  id = stim1></div></div></div></div></div>,,test_trial,1500.0,,test,1000.0,0.0,",",go,"[',']",0,,,,,
63,,html-keyboard-response,63,54526,0.0-3.0-31.0,,<div class = centerbox><div class = fixation>+</div></div>,,test_ITI,1198.6682849891822,,test,1198.6682849891822,0.0,,,,,"{'min': 0, 'max': 5, 'mean': 0.5}",,,,
64,,html-keyboard-response,64,55032,0.0-3.0-32.0,,<div class = centerbox><div class = fixation>+</div></div>,,test_fixation,500.0,,test,500.0,0.0,,,,,,,,,
65,,html-keyboard-response,65,56534,0.0-3.0-33.0,,<div class = bigbox><div class = centerbox><div class = gng_number><div class = cue-text><div  id = stim1></div></div></div></div></div>,,test_trial,1500.0,,test,1000.0,0.0,",",go,"[',']",0,,,,,
66,,html-keyboard-response,66,56742,0.0-3.0-34.0,,<div class = centerbox><div class = fixation>+</div></div>,,test_ITI,201.1602192361358,,test,201.1602192361358,0.0,,,,,"{'min': 0, 'max': 5, 'mean': 0.5}",,,,
67,,html-keyboard-response,67,57244,0.0-3.0-35.0,,<div class = centerbox><div class = fixation>+</div></div>,,test_fixation,500.0,,test,500.0,0.0,,,,,,,,,
68,,html-keyboard-response,68,58751,0.0-3.0-36.0,,<div class = bigbox><div class = centerbox><div class = gng_number><div class = cue-text><div  id = stim1></div></div></div></div></div>,,test_trial,1500.0,,test,1000.0,0.0,",",go,"[',']",0,,,,,
69,,html-keyboard-response,69,58757,0.0-3.0-37.0,,<div class = centerbox><div class = fixation>+</div></div>,,test_ITI,1.8990735158220673,,test,1.8990735158220673,0.0,,,,,"{'min': 0, 'max': 5, 'mean': 0.5}",,,,
70,,html-keyboard-response,70,59260,0.0-3.0-38.0,,<div class = centerbox><div class = fixation>+</div></div>,,test_fixation,500.0,,test,500.0,0.0,,,,,,,,,
71,,html-keyboard-response,71,60761,0.0-3.0-39.0,,<div class = bigbox><div class = centerbox><div class = gng_number><div class = cue-text><div  id = stim1></div></div></div></div></div>,,test_trial,1500.0,,test,1000.0,0.0,",",go,"[',']",0,,,,,
72,,html-keyboard-response,72,61705,0.0-3.0-40.0,,<div class = centerbox><div class = fixation>+</div></div>,,test_ITI,937.0657517492765,,test,937.0657517492765,0.0,,,,,"{'min': 0, 'max': 5, 'mean': 0.5}",,,,
73,,html-keyboard-response,73,62207,0.0-3.0-41.0,,<div class = centerbox><div class = fixation>+</div></div>,,test_fixation,500.0,,test,500.0,0.0,,,,,,,,,
74,,html-keyboard-response,74,63710,0.0-3.0-42.0,,<div class = bigbox><div class = centerbox><div class = gng_number><div class = cue-text><div  id = stim1></div></div></div></div></div>,,test_trial,1500.0,,test,1000.0,0.0,",",go,"[',']",0,,,,,
75,,html-keyboard-response,75,64037,0.0-3.0-43.0,,<div class = centerbox><div class = fixation>+</div></div>,,test_ITI,321.6432419386786,,test,321.6432419386786,0.0,,,,,"{'min': 0, 'max': 5, 'mean': 0.5}",,,,
76,,html-keyboard-response,76,64542,0.0-3.0-44.0,,<div class = centerbox><div class = fixation>+</div></div>,,test_fixation,500.0,,test,500.0,0.0,,,,,,,,,
77,,html-keyboard-response,77,66049,0.0-3.0-45.0,,<div class = bigbox><div class = centerbox><div class = gng_number><div class = cue-text><div  id = stim1></div></div></div></div></div>,,test_trial,1500.0,,test,1000.0,0.0,",",go,"[',']",0,,,,,
78,,html-keyboard-response,78,66288,0.0-3.0-46.0,,<div class = centerbox><div class = fixation>+</div></div>,,test_ITI,234.875277387179,,test,234.875277387179,0.0,,,,,"{'min': 0, 'max': 5, 'mean': 0.5}",,,,
79,,html-keyboard-response,79,66791,0.0-3.0-47.0,,<div class = centerbox><div class = fixation>+</div></div>,,test_fixation,500.0,,test,500.0,0.0,,,,,,,,,
80,,html-keyboard-response,80,68298,0.0-3.0-48.0,,<div class = bigbox><div class = centerbox><div class = gng_number><div class = cue-text><div id = stim2></div></div></div></div></div>,,test_trial,1500.0,,test,1000.0,0.0,,nogo,"[',']",1,,,,,
81,,html-keyboard-response,81,68414,0.0-3.0-49.0,,<div class = centerbox><div class = fixation>+</div></div>,,test_ITI,114.22453681035586,,test,114.22453681035586,0.0,,,,,"{'min': 0, 'max': 5, 'mean': 0.5}",,,,
82,,html-keyboard-response,82,68921,0.0-3.0-50.0,,<div class = centerbox><div class = fixation>+</div></div>,,test_fixation,500.0,,test,500.0,0.0,,,,,,,,,
83,,html-keyboard-response,83,70427,0.0-3.0-51.0,,<div class = bigbox><div class = centerbox><div class = gng_number><div class = cue-text><div  id = stim1></div></div></div></div></div>,,test_trial,1500.0,,test,1000.0,0.0,",",go,"[',']",0,,,,,
84,,html-keyboard-response,84,70810,0.0-3.0-52.0,,<div class = centerbox><div class = fixation>+</div></div>,,test_ITI,378.9192637447863,,test,378.9192637447863,0.0,,,,,"{'min': 0, 'max': 5, 'mean': 0.5}",,,,
85,,html-keyboard-response,85,71316,0.0-3.0-53.0,,<div class = centerbox><div class = fixation>+</div></div>,,test_fixation,500.0,,test,500.0,0.0,,,,,,,,,
86,,html-keyboard-response,86,72822,0.0-3.0-54.0,,<div class = bigbox><div class = centerbox><div class = gng_number><div class = cue-text><div  id = stim1></div></div></div></div></div>,,test_trial,1500.0,,test,1000.0,0.0,",",go,"[',']",0,,,,,
87,,html-keyboard-response,87,73095,0.0-3.0-55.0,,<div class = centerbox><div class = fixation>+</div></div>,,test_ITI,272.1125385255865,,test,272.1125385255865,0.0,,,,,"{'min': 0, 'max': 5, 'mean': 0.5}",,,,
88,,html-keyboard-response,88,73598,0.0-3.0-56.0,,<div class = centerbox><div class = fixation>+</div></div>,,test_fixation,500.0,,test,500.0,0.0,,,,,,,,,
89,,html-keyboard-response,89,75105,0.0-3.0-57.0,,<div class = bigbox><div class = centerbox><div class = gng_number><div class = cue-text><div  id = stim1></div></div></div></div></div>,,test_trial,1500.0,,test,1000.0,0.0,",",go,"[',']",0,,,,,
90,,html-keyboard-response,90,75274,0.0-3.0-58.0,,<div class = centerbox><div class = fixation>+</div></div>,,test_ITI,167.95202390209514,,test,167.95202390209514,0.0,,,,,"{'min': 0, 'max': 5, 'mean': 0.5}",,,,
91,,html-keyboard-response,91,75777,0.0-3.0-59.0,,<div class = centerbox><div class = fixation>+</div></div>,,test_fixation,500.0,,test,500.0,0.0,,,,,,,,,
92,,html-keyboard-response,92,77283,0.0-3.0-60.0,,<div class = bigbox><div class = centerbox><div class = gng_number><div class = cue-text><div  id = stim1></div></div></div></div></div>,,test_trial,1500.0,,test,1000.0,0.0,",",go,"[',']",0,,,,,
93,,html-keyboard-response,93,77709,0.0-3.0-61.0,,<div class = centerbox><div class = fixation>+</div></div>,,test_ITI,421.6630161951168,,test,421.6630161951168,0.0,,,,,"{'min': 0, 'max': 5, 'mean': 0.5}",,,,
94,,html-keyboard-response,94,78213,0.0-3.0-62.0,,<div class = centerbox><div class = fixation>+</div></div>,,test_fixation,500.0,,test,500.0,0.0,,,,,,,,,
95,,html-keyboard-response,95,79718,0.0-3.0-63.0,,<div class = bigbox><div class = centerbox><div class = gng_number><div class = cue-text><div  id = stim1></div></div></div></div></div>,,test_trial,1500.0,,test,1000.0,0.0,",",go,"[',']",0,,,,,
96,,html-keyboard-response,96,79832,0.0-3.0-64.0,,<div class = centerbox><div class = fixation>+</div></div>,,test_ITI,112.64576119857601,,test,112.64576119857601,0.0,,,,,"{'min': 0, 'max': 5, 'mean': 0.5}",,,,
97,,html-keyboard-response,97,80337,0.0-3.0-65.0,,<div class = centerbox><div class = fixation>+</div></div>,,test_fixation,500.0,,test,500.0,0.0,,,,,,,,,
98,,html-keyboard-response,98,81839,0.0-3.0-66.0,,<div class = bigbox><div class = centerbox><div class = gng_number><div class = cue-text><div  id = stim1></div></div></div></div></div>,,test_trial,1500.0,,test,1000.0,0.0,",",go,"[',']",0,,,,,
99,,html-keyboard-response,99,81877,0.0-3.0-67.0,,<div class = centerbox><div class = fixation>+</div></div>,,test_ITI,32.696160933258625,,test,32.696160933258625,0.0,,,,,"{'min': 0, 'max': 5, 'mean': 0.5}",,,,
100,,html-keyboard-response,100,82382,0.0-3.0-68.0,,<div class = centerbox><div class = fixation>+</div></div>,,test_fixation,500.0,,test,500.0,0.0,,,,,,,,,
101,,html-keyboard-response,101,83888,0.0-3.0-69.0,,<div class = bigbox><div class = centerbox><div class = gng_number><div class = cue-text><div id = stim2></div></div></div></div></div>,,test_trial,1500.0,,test,1000.0,0.0,,nogo,"[',']",1,,,,,
102,,html-keyboard-response,102,84379,0.0-3.0-70.0,,<div class = centerbox><div class = fixation>+</div></div>,,test_ITI,489.2911477573721,,test,489.2911477573721,0.0,,,,,"{'min': 0, 'max': 5, 'mean': 0.5}",,,,
103,,html-keyboard-response,103,84883,0.0-3.0-71.0,,<div class = centerbox><div class = fixation>+</div></div>,,test_fixation,500.0,,test,500.0,0.0,,,,,,,,,
104,,html-keyboard-response,104,86390,0.0-3.0-72.0,,<div class = bigbox><div class = centerbox><div class = gng_number><div class = cue-text><div id = stim2></div></div></div></div></div>,,test_trial,1500.0,,test,1000.0,0.0,,nogo,"[',']",1,,,,,
105,,html-keyboard-response,105,86523,0.0-3.0-73.0,,<div class = centerbox><div class = fixation>+</div></div>,,test_ITI,127.77616750258944,,test,127.77616750258944,0.0,,,,,"{'min': 0, 'max': 5, 'mean': 0.5}",,,,
106,,html-keyboard-response,106,87028,0.0-3.0-74.0,,<div class = centerbox><div class = fixation>+</div></div>,,test_fixation,500.0,,test,500.0,0.0,,,,,,,,,
107,,html-keyboard-response,107,88533,0.0-3.0-75.0,,<div class = bigbox><div class = centerbox><div class = gng_number><div class = cue-text><div  id = stim1></div></div></div></div></div>,,test_trial,1500.0,,test,1000.0,0.0,",",go,"[',']",0,,,,,
108,,html-keyboard-response,108,88608,0.0-3.0-76.0,,<div class = centerbox><div class = fixation>+</div></div>,,test_ITI,73.52639501438692,,test,73.52639501438692,0.0,,,,,"{'min': 0, 'max': 5, 'mean': 0.5}",,,,
109,,html-keyboard-response,109,89113,0.0-3.0-77.0,,<div class = centerbox><div class = fixation>+</div></div>,,test_fixation,500.0,,test,500.0,0.0,,,,,,,,,
110,,html-keyboard-response,110,90619,0.0-3.0-78.0,,<div class = bigbox><div class = centerbox><div class = gng_number><div class = cue-text><div  id = stim1></div></div></div></div></div>,,test_trial,1500.0,,test,1000.0,0.0,",",go,"[',']",0,,,,,
111,,html-keyboard-response,111,90670,0.0-3.0-79.0,,<div class = centerbox><div class = fixation>+</div></div>,,test_ITI,44.55205693493849,,test,44.55205693493849,0.0,,,,,"{'min': 0, 'max': 5, 'mean': 0.5}",,,,
112,,html-keyboard-response,112,91174,0.0-3.0-80.0,,<div class = centerbox><div class = fixation>+</div></div>,,test_fixation,500.0,,test,500.0,0.0,,,,,,,,,
113,,html-keyboard-response,113,92680,0.0-3.0-81.0,,<div class = bigbox><div class = centerbox><div class = gng_number><div class = cue-text><div  id = stim1></div></div></div></div></div>,,test_trial,1500.0,,test,1000.0,0.0,",",go,"[',']",0,,,,,
114,,html-keyboard-response,114,93084,0.0-3.0-82.0,,<div class = centerbox><div class = fixation>+</div></div>,,test_ITI,397.6085993563681,,test,397.6085993563681,0.0,,,,,"{'min': 0, 'max': 5, 'mean': 0.5}",,,,
115,,html-keyboard-response,115,93585,0.0-3.0-83.0,,<div class = centerbox><div class = fixation>+</div></div>,,test_fixation,500.0,,test,500.0,0.0,,,,,,,,,
116,,html-keyboard-response,116,95092,0.0-3.0-84.0,,<div class = bigbox><div class = centerbox><div class = gng_number><div class = cue-text><div  id = stim1></div></div></div></div></div>,,test_trial,1500.0,,test,1000.0,0.0,",",go,"[',']",0,,,,,
117,,html-keyboard-response,117,95681,0.0-3.0-85.0,,<div class = centerbox><div class = fixation>+</div></div>,,test_ITI,583.1451661201752,,test,583.1451661201752,0.0,,,,,"{'min': 0, 'max': 5, 'mean': 0.5}",,,,
118,,html-keyboard-response,118,96187,0.0-3.0-86.0,,<div class = centerbox><div class = fixation>+</div></div>,,test_fixation,500.0,,test,500.0,0.0,,,,,,,,,
119,,html-keyboard-response,119,97693,0.0-3.0-87.0,,<div class = bigbox><div class = centerbox><div class = gng_number><div class = cue-text><div  id = stim1></div></div></div></div></div>,,test_trial,1500.0,,test,1000.0,0.0,",",go,"[',']",0,,,,,
120,,html-keyboard-response,120,99639,0.0-3.0-88.0,,<div class = centerbox><div class = fixation>+</div></div>,,test_ITI,1939.4820409343286,,test,1939.4820409343286,0.0,,,,,"{'min': 0, 'max': 5, 'mean': 0.5}",,,,
121,,html-keyboard-response,121,100142,0.0-3.0-89.0,,<div class = centerbox><div class = fixation>+</div></div>,,test_fixation,500.0,,test,500.0,0.0,,,,,,,,,
122,,html-keyboard-response,122,101649,0.0-3.0-90.0,,<div class = bigbox><div class = centerbox><div class = gng_number><div class = cue-text><div id = stim2></div></div></div></div></div>,,test_trial,1500.0,,test,1000.0,0.0,,nogo,"[',']",1,,,,,
123,,html-keyboard-response,123,102044,0.0-3.0-91.0,,<div class = centerbox><div class = fixation>+</div></div>,,test_ITI,392.2561021929607,,test,392.2561021929607,0.0,,,,,"{'min': 0, 'max': 5, 'mean': 0.5}",,,,
124,,html-keyboard-response,124,102546,0.0-3.0-92.0,,<div class = centerbox><div class = fixation>+</div></div>,,test_fixation,500.0,,test,500.0,0.0,,,,,,,,,
125,,html-keyboard-response,125,104053,0.0-3.0-93.0,,<div class = bigbox><div class = centerbox><div class = gng_number><div class = cue-text><div  id = stim1></div></div></div></div></div>,,test_trial,1500.0,,test,1000.0,0.0,",",go,"[',']",0,,,,,
126,,html-keyboard-response,126,104265,0.0-3.0-94.0,,<div class = centerbox><div class = fixation>+</div></div>,,test_ITI,206.7985952720335,,test,206.7985952720335,0.0,,,,,"{'min': 0, 'max': 5, 'mean': 0.5}",,,,
127,,html-keyboard-response,127,104768,0.0-3.0-95.0,,<div class = centerbox><div class = fixation>+</div></div>,,test_fixation,500.0,,test,500.0,0.0,,,,,,,,,
128,,html-keyboard-response,128,106274,0.0-3.0-96.0,,<div class = bigbox><div class = centerbox><div class = gng_number><div class = cue-text><div id = stim2></div></div></div></div></div>,,test_trial,1500.0,,test,1000.0,0.0,,nogo,"[',']",1,,,,,
129,,html-keyboard-response,129,107036,0.0-3.0-97.0,,<div class = centerbox><div class = fixation>+</div></div>,,test_ITI,755.8761280577673,,test,755.8761280577673,0.0,,,,,"{'min': 0, 'max': 5, 'mean': 0.5}",,,,
130,,html-keyboard-response,130,107541,0.0-3.0-98.0,,<div class = centerbox><div class = fixation>+</div></div>,,test_fixation,500.0,,test,500.0,0.0,,,,,,,,,
131,,html-keyboard-response,131,109046,0.0-3.0-99.0,,<div class = bigbox><div class = centerbox><div class = gng_number><div class = cue-text><div  id = stim1></div></div></div></div></div>,,test_trial,1500.0,,test,1000.0,0.0,",",go,"[',']",0,,,,,
132,,html-keyboard-response,132,109812,0.0-3.0-100.0,,<div class = centerbox><div class = fixation>+</div></div>,,test_ITI,759.3492568352268,,test,759.3492568352268,0.0,,,,,"{'min': 0, 'max': 5, 'mean': 0.5}",,,,
133,,html-keyboard-response,133,110318,0.0-3.0-101.0,,<div class = centerbox><div class = fixation>+</div></div>,,test_fixation,500.0,,test,500.0,0.0,,,,,,,,,
134,,html-keyboard-response,134,111823,0.0-3.0-102.0,,<div class = bigbox><div class = centerbox><div class = gng_number><div class = cue-text><div  id = stim1></div></div></div></div></div>,,test_trial,1500.0,,test,1000.0,0.0,",",go,"[',']",0,,,,,
135,,html-keyboard-response,135,111836,0.0-3.0-103.0,,<div class = centerbox><div class = fixation>+</div></div>,,test_ITI,10.308666367745692,,test,10.308666367745692,0.0,,,,,"{'min': 0, 'max': 5, 'mean': 0.5}",,,,
136,,html-keyboard-response,136,112340,0.0-3.0-104.0,,<div class = centerbox><div class = fixation>+</div></div>,,test_fixation,500.0,,test,500.0,0.0,,,,,,,,,
137,,html-keyboard-response,137,113843,0.0-3.0-105.0,,<div class = bigbox><div class = centerbox><div class = gng_number><div class = cue-text><div  id = stim1></div></div></div></div></div>,,test_trial,1500.0,,test,1000.0,0.0,",",go,"[',']",0,,,,,
138,,html-keyboard-response,138,114952,0.0-3.0-106.0,,<div class = centerbox><div class = fixation>+</div></div>,,test_ITI,1105.4517514832326,,test,1105.4517514832326,0.0,,,,,"{'min': 0, 'max': 5, 'mean': 0.5}",,,,
139,,html-keyboard-response,139,115456,0.0-3.0-107.0,,<div class = centerbox><div class = fixation>+</div></div>,,test_fixation,500.0,,test,500.0,0.0,,,,,,,,,
140,,html-keyboard-response,140,116962,0.0-3.0-108.0,,<div class = bigbox><div class = centerbox><div class = gng_number><div class = cue-text><div id = stim2></div></div></div></div></div>,,test_trial,1500.0,,test,1000.0,0.0,,nogo,"[',']",1,,,,,
141,,html-keyboard-response,141,117612,0.0-3.0-109.0,,<div class = centerbox><div class = fixation>+</div></div>,,test_ITI,643.7837252402691,,test,643.7837252402691,0.0,,,,,"{'min': 0, 'max': 5, 'mean': 0.5}",,,,
142,,html-keyboard-response,142,118116,0.0-3.0-110.0,,<div class = centerbox><div class = fixation>+</div></div>,,test_fixation,500.0,,test,500.0,0.0,,,,,,,,,
143,,html-keyboard-response,143,119622,0.0-3.0-111.0,,<div class = bigbox><div class = centerbox><div class = gng_number><div class = cue-text><div  id = stim1></div></div></div></div></div>,,test_trial,1500.0,,test,1000.0,0.0,",",go,"[',']",0,,,,,
144,,html-keyboard-response,144,120905,0.0-3.0-112.0,,<div class = centerbox><div class = fixation>+</div></div>,,test_ITI,1276.6065577363306,,test,1276.6065577363306,0.0,,,,,"{'min': 0, 'max': 5, 'mean': 0.5}",,,,
145,,html-keyboard-response,145,121409,0.0-3.0-113.0,,<div class = centerbox><div class = fixation>+</div></div>,,test_fixation,500.0,,test,500.0,0.0,,,,,,,,,
146,,html-keyboard-response,146,122913,0.0-3.0-114.0,,<div class = bigbox><div class = centerbox><div class = gng_number><div class = cue-text><div  id = stim1></div></div></div></div></div>,,test_trial,1500.0,,test,1000.0,0.0,",",go,"[',']",0,,,,,
147,,html-keyboard-response,147,123843,0.0-3.0-115.0,,<div class = centerbox><div class = fixation>+</div></div>,,test_ITI,927.4950158058899,,test,927.4950158058899,0.0,,,,,"{'min': 0, 'max': 5, 'mean': 0.5}",,,,
148,,html-keyboard-response,148,124347,0.0-3.0-116.0,,<div class = centerbox><div class = fixation>+</div></div>,,test_fixation,500.0,,test,500.0,0.0,,,,,,,,,
149,,html-keyboard-response,149,125854,0.0-3.0-117.0,,<div class = bigbox><div class = centerbox><div class = gng_number><div class = cue-text><div  id = stim1></div></div></div></div></div>,,test_trial,1500.0,,test,1000.0,0.0,",",go,"[',']",0,,,,,
150,,html-keyboard-response,150,125913,0.0-3.0-118.0,,<div class = centerbox><div class = fixation>+</div></div>,,test_ITI,58.15831062981938,,test,58.15831062981938,0.0,,,,,"{'min': 0, 'max': 5, 'mean': 0.5}",,,,
151,,html-keyboard-response,151,126417,0.0-3.0-119.0,,<div class = centerbox><div class = fixation>+</div></div>,,test_fixation,500.0,,test,500.0,0.0,,,,,,,,,
152,,html-keyboard-response,152,127924,0.0-3.0-120.0,,<div class = bigbox><div class = centerbox><div class = gng_number><div class = cue-text><div  id = stim1></div></div></div></div></div>,,test_trial,1500.0,,test,1000.0,0.0,",",go,"[',']",0,,,,,
153,,html-keyboard-response,153,128173,0.0-3.0-121.0,,<div class = centerbox><div class = fixation>+</div></div>,,test_ITI,243.67383185824482,,test,243.67383185824482,0.0,,,,,"{'min': 0, 'max': 5, 'mean': 0.5}",,,,
154,,html-keyboard-response,154,128676,0.0-3.0-122.0,,<div class = centerbox><div class = fixation>+</div></div>,,test_fixation,500.0,,test,500.0,0.0,,,,,,,,,
155,,html-keyboard-response,155,130182,0.0-3.0-123.0,,<div class = bigbox><div class = centerbox><div class = gng_number><div class = cue-text><div  id = stim1></div></div></div></div></div>,,test_trial,1500.0,,test,1000.0,0.0,",",go,"[',']",0,,,,,
156,,html-keyboard-response,156,130403,0.0-3.0-124.0,,<div class = centerbox><div class = fixation>+</div></div>,,test_ITI,217.54657120954178,,test,217.54657120954178,0.0,,,,,"{'min': 0, 'max': 5, 'mean': 0.5}",,,,
157,,html-keyboard-response,157,130906,0.0-3.0-125.0,,<div class = centerbox><div class = fixation>+</div></div>,,test_fixation,500.0,,test,500.0,0.0,,,,,,,,,
158,,html-keyboard-response,158,132412,0.0-3.0-126.0,,<div class = bigbox><div class = centerbox><div class = gng_number><div class = cue-text><div  id = stim1></div></div></div></div></div>,,test_trial,1500.0,,test,1000.0,0.0,",",go,"[',']",0,,,,,
159,,html-keyboard-response,159,132508,0.0-3.0-127.0,,<div class = centerbox><div class = fixation>+</div></div>,,test_ITI,89.1839860529542,,test,89.1839860529542,0.0,,,,,"{'min': 0, 'max': 5, 'mean': 0.5}",,,,
160,,html-keyboard-response,160,133012,0.0-3.0-128.0,,<div class = centerbox><div class = fixation>+</div></div>,,test_fixation,500.0,,test,500.0,0.0,,,,,,,,,
161,,html-keyboard-response,161,134518,0.0-3.0-129.0,,<div class = bigbox><div class = centerbox><div class = gng_number><div class = cue-text><div id = stim2></div></div></div></div></div>,,test_trial,1500.0,,test,1000.0,0.0,,nogo,"[',']",1,,,,,
162,,html-keyboard-response,162,135425,0.0-3.0-130.0,,<div class = centerbox><div class = fixation>+</div></div>,,test_ITI,901.8475329855029,,test,901.8475329855029,0.0,,,,,"{'min': 0, 'max': 5, 'mean': 0.5}",,,,
163,,html-keyboard-response,163,135932,0.0-3.0-131.0,,<div class = centerbox><div class = fixation>+</div></div>,,test_fixation,500.0,,test,500.0,0.0,,,,,,,,,
164,,html-keyboard-response,164,137438,0.0-3.0-132.0,,<div class = bigbox><div class = centerbox><div class = gng_number><div class = cue-text><div  id = stim1></div></div></div></div></div>,,test_trial,1500.0,,test,1000.0,0.0,",",go,"[',']",0,,,,,
165,,html-keyboard-response,165,137817,0.0-3.0-133.0,,<div class = centerbox><div class = fixation>+</div></div>,,test_ITI,374.0203066471245,,test,374.0203066471245,0.0,,,,,"{'min': 0, 'max': 5, 'mean': 0.5}",,,,
166,,html-keyboard-response,166,138320,0.0-3.0-134.0,,<div class = centerbox><div class = fixation>+</div></div>,,test_fixation,500.0,,test,500.0,0.0,,,,,,,,,
167,,html-keyboard-response,167,139826,0.0-3.0-135.0,,<div class = bigbox><div class = centerbox><div class = gng_number><div class = cue-text><div  id = stim1></div></div></div></div></div>,,test_trial,1500.0,,test,1000.0,0.0,",",go,"[',']",0,,,,,
168,,html-keyboard-response,168,140016,0.0-3.0-136.0,,<div class = centerbox><div class = fixation>+</div></div>,,test_ITI,185.59720542397048,,test,185.59720542397048,0.0,,,,,"{'min': 0, 'max': 5, 'mean': 0.5}",,,,
169,,html-keyboard-response,169,140520,0.0-3.0-137.0,,<div class = centerbox><div class = fixation>+</div></div>,,test_fixation,500.0,,test,500.0,0.0,,,,,,,,,
170,,html-keyboard-response,170,142027,0.0-3.0-138.0,,<div class = bigbox><div class = centerbox><div class = gng_number><div class = cue-text><div  id = stim1></div></div></div></div></div>,,test_trial,1500.0,,test,1000.0,0.0,",",go,"[',']",0,,,,,
171,,html-keyboard-response,171,142245,0.0-3.0-139.0,,<div class = centerbox><div class = fixation>+</div></div>,,test_ITI,216.76441110765253,,test,216.76441110765253,0.0,,,,,"{'min': 0, 'max': 5, 'mean': 0.5}",,,,
172,,html-keyboard-response,172,142747,0.0-3.0-140.0,,<div class = centerbox><div class = fixation>+</div></div>,,test_fixation,500.0,,test,500.0,0.0,,,,,,,,,
173,,html-keyboard-response,173,144254,0.0-3.0-141.0,,<div class = bigbox><div class = centerbox><div class = gng_number><div class = cue-text><div  id = stim1></div></div></div></div></div>,,test_trial,1500.0,,test,1000.0,0.0,",",go,"[',']",0,,,,,
174,,html-keyboard-response,174,145190,0.0-3.0-142.0,,<div class = centerbox><div class = fixation>+</div></div>,,test_ITI,930.6618612447286,,test,930.6618612447286,0.0,,,,,"{'min': 0, 'max': 5, 'mean': 0.5}",,,,
175,,html-keyboard-response,175,145693,0.0-3.0-143.0,,<div class = centerbox><div class = fixation>+</div></div>,,test_fixation,500.0,,test,500.0,0.0,,,,,,,,,
176,,html-keyboard-response,176,147199,0.0-3.0-144.0,,<div class = bigbox><div class = centerbox><div class = gng_number><div class = cue-text><div  id = stim1></div></div></div></div></div>,,test_trial,1500.0,,test,1000.0,0.0,",",go,"[',']",0,,,,,
177,,html-keyboard-response,177,148200,0.0-3.0-145.0,,<div class = centerbox><div class = fixation>+</div></div>,,test_ITI,995.2362635441384,,test,995.2362635441384,0.0,,,,,"{'min': 0, 'max': 5, 'mean': 0.5}",,,,
178,,html-keyboard-response,178,148704,0.0-3.0-146.0,,<div class = centerbox><div class = fixation>+</div></div>,,test_fixation,500.0,,test,500.0,0.0,,,,,,,,,
179,,html-keyboard-response,179,150211,0.0-3.0-147.0,,<div class = bigbox><div class = centerbox><div class = gng_number><div class = cue-text><div  id = stim1></div></div></div></div></div>,,test_trial,1500.0,,test,1000.0,0.0,",",go,"[',']",0,,,,,
180,,html-keyboard-response,180,150652,0.0-3.0-148.0,,<div class = centerbox><div class = fixation>+</div></div>,,test_ITI,438.4952494283347,,test,438.4952494283347,0.0,,,,,"{'min': 0, 'max': 5, 'mean': 0.5}",,,,
181,,html-keyboard-response,181,151156,0.0-3.0-149.0,,<div class = centerbox><div class = fixation>+</div></div>,,test_fixation,500.0,,test,500.0,0.0,,,,,,,,,
182,,html-keyboard-response,182,152662,0.0-3.0-150.0,,<div class = bigbox><div class = centerbox><div class = gng_number><div class = cue-text><div  id = stim1></div></div></div></div></div>,,test_trial,1500.0,,test,1000.0,0.0,",",go,"[',']",0,,,,,
183,,html-keyboard-response,183,153661,0.0-3.0-151.0,,<div class = centerbox><div class = fixation>+</div></div>,,test_ITI,993.0055778205019,,test,993.0055778205019,0.0,,,,,"{'min': 0, 'max': 5, 'mean': 0.5}",,,,
184,,html-keyboard-response,184,154164,0.0-3.0-152.0,,<div class = centerbox><div class = fixation>+</div></div>,,test_fixation,500.0,,test,500.0,0.0,,,,,,,,,
185,,html-keyboard-response,185,155667,0.0-3.0-153.0,,<div class = bigbox><div class = centerbox><div class = gng_number><div class = cue-text><div  id = stim1></div></div></div></div></div>,,test_trial,1500.0,,test,1000.0,0.0,",",go,"[',']",0,,,,,
186,,html-keyboard-response,186,156193,0.0-3.0-154.0,,<div class = centerbox><div class = fixation>+</div></div>,,test_ITI,524.0270959222926,,test,524.0270959222926,0.0,,,,,"{'min': 0, 'max': 5, 'mean': 0.5}",,,,
187,,html-keyboard-response,187,156700,0.0-3.0-155.0,,<div class = centerbox><div class = fixation>+</div></div>,,test_fixation,500.0,,test,500.0,0.0,,,,,,,,,
188,,html-keyboard-response,188,158206,0.0-3.0-156.0,,<div class = bigbox><div class = centerbox><div class = gng_number><div class = cue-text><div  id = stim1></div></div></div></div></div>,,test_trial,1500.0,,test,1000.0,0.0,",",go,"[',']",0,,,,,
189,,html-keyboard-response,189,158575,0.0-3.0-157.0,,<div class = centerbox><div class = fixation>+</div></div>,,test_ITI,363.0525030226333,,test,363.0525030226333,0.0,,,,,"{'min': 0, 'max': 5, 'mean': 0.5}",,,,
190,,html-keyboard-response,190,159079,0.0-3.0-158.0,,<div class = centerbox><div class = fixation>+</div></div>,,test_fixation,500.0,,test,500.0,0.0,,,,,,,,,
191,,html-keyboard-response,191,160586,0.0-3.0-159.0,,<div class = bigbox><div class = centerbox><div class = gng_number><div class = cue-text><div  id = stim1></div></div></div></div></div>,,test_trial,1500.0,,test,1000.0,0.0,",",go,"[',']",0,,,,,
192,,html-keyboard-response,192,160957,0.0-3.0-160.0,,<div class = centerbox><div class = fixation>+</div></div>,,test_ITI,365.1147008801269,,test,365.1147008801269,0.0,,,,,"{'min': 0, 'max': 5, 'mean': 0.5}",,,,
193,,html-keyboard-response,193,161459,0.0-3.0-161.0,,<div class = centerbox><div class = fixation>+</div></div>,,test_fixation,500.0,,test,500.0,0.0,,,,,,,,,
194,,html-keyboard-response,194,162965,0.0-3.0-162.0,,<div class = bigbox><div class = centerbox><div class = gng_number><div class = cue-text><div  id = stim1></div></div></div></div></div>,,test_trial,1500.0,,test,1000.0,0.0,",",go,"[',']",0,,,,,
195,,html-keyboard-response,195,164147,0.0-3.0-163.0,,<div class = centerbox><div class = fixation>+</div></div>,,test_ITI,1176.3257445725499,,test,1176.3257445725499,0.0,,,,,"{'min': 0, 'max': 5, 'mean': 0.5}",,,,
196,,html-keyboard-response,196,164650,0.0-3.0-164.0,,<div class = centerbox><div class = fixation>+</div></div>,,test_fixation,500.0,,test,500.0,0.0,,,,,,,,,
197,,html-keyboard-response,197,166156,0.0-3.0-165.0,,<div class = bigbox><div class = centerbox><div class = gng_number><div class = cue-text><div  id = stim1></div></div></div></div></div>,,test_trial,1500.0,,test,1000.0,0.0,",",go,"[',']",0,,,,,
198,,html-keyboard-response,198,169108,0.0-3.0-166.0,,<div class = centerbox><div class = fixation>+</div></div>,,test_ITI,2950.016081965635,,test,2950.016081965635,0.0,,,,,"{'min': 0, 'max': 5, 'mean': 0.5}",,,,
199,,html-keyboard-response,199,169611,0.0-3.0-167.0,,<div class = centerbox><div class = fixation>+</div></div>,,test_fixation,500.0,,test,500.0,0.0,,,,,,,,,
200,,html-keyboard-response,200,171118,0.0-3.0-168.0,,<div class = bigbox><div class = centerbox><div class = gng_number><div class = cue-text><div id = stim2></div></div></div></div></div>,,test_trial,1500.0,,test,1000.0,0.0,,nogo,"[',']",1,,,,,
201,,html-keyboard-response,201,171256,0.0-3.0-169.0,,<div class = centerbox><div class = fixation>+</div></div>,,test_ITI,130.47305825814527,,test,130.47305825814527,0.0,,,,,"{'min': 0, 'max': 5, 'mean': 0.5}",,,,
202,,html-keyboard-response,202,171761,0.0-3.0-170.0,,<div class = centerbox><div class = fixation>+</div></div>,,test_fixation,500.0,,test,500.0,0.0,,,,,,,,,
203,,html-keyboard-response,203,173267,0.0-3.0-171.0,654.0,<div class = bigbox><div class = centerbox><div class = gng_number><div class = cue-text><div  id = stim1></div></div></div></div></div>,",",test_trial,1500.0,,test,1000.0,0.0,",",go,"[',']",1,,,,,
204,,html-keyboard-response,204,173821,0.0-3.0-172.0,,<div class = centerbox><div class = fixation>+</div></div>,,test_ITI,550.1809698673064,,test,550.1809698673064,0.0,,,,,"{'min': 0, 'max': 5, 'mean': 0.5}",,,,
205,,html-keyboard-response,205,174324,0.0-3.0-173.0,,<div class = centerbox><div class = fixation>+</div></div>,,test_fixation,500.0,,test,500.0,0.0,,,,,,,,,
206,,html-keyboard-response,206,175825,0.0-3.0-174.0,362.0,<div class = bigbox><div class = centerbox><div class = gng_number><div class = cue-text><div  id = stim1></div></div></div></div></div>,",",test_trial,1500.0,,test,1000.0,0.0,",",go,"[',']",1,,,,,
207,,html-keyboard-response,207,176210,0.0-3.0-175.0,,<div class = centerbox><div class = fixation>+</div></div>,,test_ITI,382.2164932555295,,test,382.2164932555295,0.0,,,,,"{'min': 0, 'max': 5, 'mean': 0.5}",,,,
208,,html-keyboard-response,208,176714,0.0-3.0-176.0,,<div class = centerbox><div class = fixation>+</div></div>,,test_fixation,500.0,,test,500.0,0.0,,,,,,,,,
209,,html-keyboard-response,209,178217,0.0-3.0-177.0,348.0,<div class = bigbox><div class = centerbox><div class = gng_number><div class = cue-text><div  id = stim1></div></div></div></div></div>,",",test_trial,1500.0,,test,1000.0,0.0,",",go,"[',']",1,,,,,
210,,html-keyboard-response,210,179087,0.0-3.0-178.0,,<div class = centerbox><div class = fixation>+</div></div>,,test_ITI,863.8811247698223,,test,863.8811247698223,0.0,,,,,"{'min': 0, 'max': 5, 'mean': 0.5}",,,,
211,,html-keyboard-response,211,179591,0.0-3.0-179.0,,<div class = centerbox><div class = fixation>+</div></div>,,test_fixation,500.0,,test,500.0,0.0,,,,,,,,,
212,,html-keyboard-response,212,181094,0.0-3.0-180.0,393.0,<div class = bigbox><div class = centerbox><div class = gng_number><div class = cue-text><div  id = stim1></div></div></div></div></div>,",",test_trial,1500.0,,test,1000.0,0.0,",",go,"[',']",1,,,,,
213,,html-keyboard-response,213,181479,0.0-3.0-181.0,,<div class = centerbox><div class = fixation>+</div></div>,,test_ITI,380.5195253417405,,test,380.5195253417405,0.0,,,,,"{'min': 0, 'max': 5, 'mean': 0.5}",,,,
214,,html-keyboard-response,214,181982,0.0-3.0-182.0,,<div class = centerbox><div class = fixation>+</div></div>,,test_fixation,500.0,,test,500.0,0.0,,,,,,,,,
215,,html-keyboard-response,215,183488,0.0-3.0-183.0,347.0,<div class = bigbox><div class = centerbox><div class = gng_number><div class = cue-text><div  id = stim1></div></div></div></div></div>,",",test_trial,1500.0,,test,1000.0,0.0,",",go,"[',']",1,,,,,
216,,html-keyboard-response,216,183722,0.0-3.0-184.0,,<div class = centerbox><div class = fixation>+</div></div>,,test_ITI,231.58553140392675,,test,231.58553140392675,0.0,,,,,"{'min': 0, 'max': 5, 'mean': 0.5}",,,,
217,,html-keyboard-response,217,184225,0.0-3.0-185.0,,<div class = centerbox><div class = fixation>+</div></div>,,test_fixation,500.0,,test,500.0,0.0,,,,,,,,,
218,,html-keyboard-response,218,185726,0.0-3.0-186.0,,<div class = bigbox><div class = centerbox><div class = gng_number><div class = cue-text><div  id = stim1></div></div></div></div></div>,,test_trial,1500.0,,test,1000.0,0.0,",",go,"[',']",0,,,,,
219,,html-keyboard-response,219,187203,0.0-3.0-187.0,,<div class = centerbox><div class = fixation>+</div></div>,,test_ITI,1470.0135517391361,,test,1470.0135517391361,0.0,,,,,"{'min': 0, 'max': 5, 'mean': 0.5}",,,,
220,,html-keyboard-response,220,187706,0.0-3.0-188.0,,<div class = centerbox><div class = fixation>+</div></div>,,test_fixation,500.0,,test,500.0,0.0,,,,,,,,,
221,,html-keyboard-response,221,189212,0.0-3.0-189.0,,<div class = bigbox><div class = centerbox><div class = gng_number><div class = cue-text><div  id = stim1></div></div></div></div></div>,,test_trial,1500.0,,test,1000.0,0.0,",",go,"[',']",0,,,,,
222,,html-keyboard-response,222,190490,0.0-3.0-190.0,,<div class = centerbox><div class = fixation>+</div></div>,,test_ITI,1271.743258586729,,test,1271.743258586729,0.0,,,,,"{'min': 0, 'max': 5, 'mean': 0.5}",,,,
223,,html-keyboard-response,223,250498,0.0-3.1-0.1,,"<div class = bigbox><div class = picture_box><p class = block-text>
    <div class = centerbox><p class = block-text>Please take this time to read your feedback! This screen will advance automatically in 1 minute.</p><p class=block-text>You have completed 1 out of 3 blocks of trials.</p>
       <p class=""block-text"">Your accuracy is low. Remember: </p>
  <ul style=""text-align:left;"">
    <li>solid white square: respond</li>
    <li>outlined white square: do not respond</li>
  </ul>

      
        <p class=""block-text"">You have not been responding to some trials. Please respond on every trial that requires a response.</p>
      <p class=block-text>Press <i>enter</i> to continue.</p></div>
    </font></p></div></div>",,test_feedback,60000.0,,test,,,,,,,,,,,
224,,html-keyboard-response,224,253765,0.0-3.1-1.1-0.1,3265.0,,b,test_attention_check,,,test,,1.0,,,,True,,<p class='block-text'>Press the key for the second letter of the English alphabet.</p> <div class=block-text>This screen will advance automatically in 1 minute.</div>,66.0,,
225,,html-keyboard-response,225,254267,0.0-3.1-2.1,,<div class = centerbox><div class = fixation>+</div></div>,,test_fixation,500.0,,test,500.0,1.0,,,,,,,,,
226,,html-keyboard-response,226,255773,0.0-3.1-3.1,447.0,<div class = bigbox><div class = centerbox><div class = gng_number><div class = cue-text><div  id = stim1></div></div></div></div></div>,",",test_trial,1500.0,,test,1000.0,1.0,",",go,"[',']",1,,,,,
227,,html-keyboard-response,227,256432,0.0-3.1-4.1,,<div class = centerbox><div class = fixation>+</div></div>,,test_ITI,652.7075730603119,,test,652.7075730603119,1.0,,,,,"{'min': 0, 'max': 5, 'mean': 0.5}",,,,
228,,html-keyboard-response,228,256936,0.0-3.1-5.1,,<div class = centerbox><div class = fixation>+</div></div>,,test_fixation,500.0,,test,500.0,1.0,,,,,,,,,
229,,html-keyboard-response,229,258443,0.0-3.1-6.1,,<div class = bigbox><div class = centerbox><div class = gng_number><div class = cue-text><div id = stim2></div></div></div></div></div>,,test_trial,1500.0,,test,1000.0,1.0,,nogo,"[',']",1,,,,,
230,,html-keyboard-response,230,259110,0.0-3.1-7.1,,<div class = centerbox><div class = fixation>+</div></div>,,test_ITI,661.9292740066294,,test,661.9292740066294,1.0,,,,,"{'min': 0, 'max': 5, 'mean': 0.5}",,,,
231,,html-keyboard-response,231,259613,0.0-3.1-8.1,,<div class = centerbox><div class = fixation>+</div></div>,,test_fixation,500.0,,test,500.0,1.0,,,,,,,,,
232,,html-keyboard-response,232,261115,0.0-3.1-9.1,539.0,<div class = bigbox><div class = centerbox><div class = gng_number><div class = cue-text><div  id = stim1></div></div></div></div></div>,",",test_trial,1500.0,,test,1000.0,1.0,",",go,"[',']",1,,,,,
233,,html-keyboard-response,233,261203,0.0-3.1-10.1,,<div class = centerbox><div class = fixation>+</div></div>,,test_ITI,85.59498327354888,,test,85.59498327354888,1.0,,,,,"{'min': 0, 'max': 5, 'mean': 0.5}",,,,
234,,html-keyboard-response,234,261707,0.0-3.1-11.1,,<div class = centerbox><div class = fixation>+</div></div>,,test_fixation,500.0,,test,500.0,1.0,,,,,,,,,
235,,html-keyboard-response,235,263213,0.0-3.1-12.1,477.0,<div class = bigbox><div class = centerbox><div class = gng_number><div class = cue-text><div  id = stim1></div></div></div></div></div>,",",test_trial,1500.0,,test,1000.0,1.0,",",go,"[',']",1,,,,,
236,,html-keyboard-response,236,263386,0.0-3.1-13.1,,<div class = centerbox><div class = fixation>+</div></div>,,test_ITI,169.4664397139305,,test,169.4664397139305,1.0,,,,,"{'min': 0, 'max': 5, 'mean': 0.5}",,,,
237,,html-keyboard-response,237,263889,0.0-3.1-14.1,,<div class = centerbox><div class = fixation>+</div></div>,,test_fixation,500.0,,test,500.0,1.0,,,,,,,,,
238,,html-keyboard-response,238,265396,0.0-3.1-15.1,329.0,<div class = bigbox><div class = centerbox><div class = gng_number><div class = cue-text><div  id = stim1></div></div></div></div></div>,",",test_trial,1500.0,,test,1000.0,1.0,",",go,"[',']",1,,,,,
239,,html-keyboard-response,239,265533,0.0-3.1-16.1,,<div class = centerbox><div class = fixation>+</div></div>,,test_ITI,131.7708874512313,,test,131.7708874512313,1.0,,,,,"{'min': 0, 'max': 5, 'mean': 0.5}",,,,
240,,html-keyboard-response,240,266037,0.0-3.1-17.1,,<div class = centerbox><div class = fixation>+</div></div>,,test_fixation,500.0,,test,500.0,1.0,,,,,,,,,
241,,html-keyboard-response,241,267540,0.0-3.1-18.1,,<div class = bigbox><div class = centerbox><div class = gng_number><div class = cue-text><div  id = stim1></div></div></div></div></div>,,test_trial,1500.0,,test,1000.0,1.0,",",go,"[',']",0,,,,,
242,,html-keyboard-response,242,268260,0.0-3.1-19.1,,<div class = centerbox><div class = fixation>+</div></div>,,test_ITI,717.0351585855601,,test,717.0351585855601,1.0,,,,,"{'min': 0, 'max': 5, 'mean': 0.5}",,,,
243,,html-keyboard-response,243,268764,0.0-3.1-20.1,,<div class = centerbox><div class = fixation>+</div></div>,,test_fixation,500.0,,test,500.0,1.0,,,,,,,,,
244,,html-keyboard-response,244,270271,0.0-3.1-21.1,,<div class = bigbox><div class = centerbox><div class = gng_number><div class = cue-text><div  id = stim1></div></div></div></div></div>,,test_trial,1500.0,,test,1000.0,1.0,",",go,"[',']",0,,,,,
245,,html-keyboard-response,245,271659,0.0-3.1-22.1,,<div class = centerbox><div class = fixation>+</div></div>,,test_ITI,1382.1517262383722,,test,1382.1517262383722,1.0,,,,,"{'min': 0, 'max': 5, 'mean': 0.5}",,,,
246,,html-keyboard-response,246,272164,0.0-3.1-23.1,,<div class = centerbox><div class = fixation>+</div></div>,,test_fixation,500.0,,test,500.0,1.0,,,,,,,,,
247,,html-keyboard-response,247,273669,0.0-3.1-24.1,,<div class = bigbox><div class = centerbox><div class = gng_number><div class = cue-text><div  id = stim1></div></div></div></div></div>,,test_trial,1500.0,,test,1000.0,1.0,",",go,"[',']",0,,,,,
248,,html-keyboard-response,248,273678,0.0-3.1-25.1,,<div class = centerbox><div class = fixation>+</div></div>,,test_ITI,7.400604297118198,,test,7.400604297118198,1.0,,,,,"{'min': 0, 'max': 5, 'mean': 0.5}",,,,
249,,html-keyboard-response,249,274184,0.0-3.1-26.1,,<div class = centerbox><div class = fixation>+</div></div>,,test_fixation,500.0,,test,500.0,1.0,,,,,,,,,
250,,html-keyboard-response,250,275688,0.0-3.1-27.1,,<div class = bigbox><div class = centerbox><div class = gng_number><div class = cue-text><div  id = stim1></div></div></div></div></div>,,test_trial,1500.0,,test,1000.0,1.0,",",go,"[',']",0,,,,,
251,,html-keyboard-response,251,275862,0.0-3.1-28.1,,<div class = centerbox><div class = fixation>+</div></div>,,test_ITI,172.3187980305861,,test,172.3187980305861,1.0,,,,,"{'min': 0, 'max': 5, 'mean': 0.5}",,,,
252,,html-keyboard-response,252,276367,0.0-3.1-29.1,,<div class = centerbox><div class = fixation>+</div></div>,,test_fixation,500.0,,test,500.0,1.0,,,,,,,,,
253,,html-keyboard-response,253,277874,0.0-3.1-30.1,,<div class = bigbox><div class = centerbox><div class = gng_number><div class = cue-text><div  id = stim1></div></div></div></div></div>,,test_trial,1500.0,,test,1000.0,1.0,",",go,"[',']",0,,,,,
254,,html-keyboard-response,254,278565,0.0-3.1-31.1,,<div class = centerbox><div class = fixation>+</div></div>,,test_ITI,685.2831161121705,,test,685.2831161121705,1.0,,,,,"{'min': 0, 'max': 5, 'mean': 0.5}",,,,
255,,html-keyboard-response,255,279069,0.0-3.1-32.1,,<div class = centerbox><div class = fixation>+</div></div>,,test_fixation,500.0,,test,500.0,1.0,,,,,,,,,
256,,html-keyboard-response,256,280576,0.0-3.1-33.1,,<div class = bigbox><div class = centerbox><div class = gng_number><div class = cue-text><div  id = stim1></div></div></div></div></div>,,test_trial,1500.0,,test,1000.0,1.0,",",go,"[',']",0,,,,,
257,,html-keyboard-response,257,281303,0.0-3.1-34.1,,<div class = centerbox><div class = fixation>+</div></div>,,test_ITI,721.0356175619705,,test,721.0356175619705,1.0,,,,,"{'min': 0, 'max': 5, 'mean': 0.5}",,,,
258,,html-keyboard-response,258,281807,0.0-3.1-35.1,,<div class = centerbox><div class = fixation>+</div></div>,,test_fixation,500.0,,test,500.0,1.0,,,,,,,,,
259,,html-keyboard-response,259,283313,0.0-3.1-36.1,,<div class = bigbox><div class = centerbox><div class = gng_number><div class = cue-text><div  id = stim1></div></div></div></div></div>,,test_trial,1500.0,,test,1000.0,1.0,",",go,"[',']",0,,,,,
260,,html-keyboard-response,260,283524,0.0-3.1-37.1,,<div class = centerbox><div class = fixation>+</div></div>,,test_ITI,204.02010528290464,,test,204.02010528290464,1.0,,,,,"{'min': 0, 'max': 5, 'mean': 0.5}",,,,
261,,html-keyboard-response,261,284028,0.0-3.1-38.1,,<div class = centerbox><div class = fixation>+</div></div>,,test_fixation,500.0,,test,500.0,1.0,,,,,,,,,
262,,html-keyboard-response,262,285530,0.0-3.1-39.1,,<div class = bigbox><div class = centerbox><div class = gng_number><div class = cue-text><div  id = stim1></div></div></div></div></div>,,test_trial,1500.0,,test,1000.0,1.0,",",go,"[',']",0,,,,,
263,,html-keyboard-response,263,286196,0.0-3.1-40.1,,<div class = centerbox><div class = fixation>+</div></div>,,test_ITI,661.379366882991,,test,661.379366882991,1.0,,,,,"{'min': 0, 'max': 5, 'mean': 0.5}",,,,
264,,html-keyboard-response,264,286698,0.0-3.1-41.1,,<div class = centerbox><div class = fixation>+</div></div>,,test_fixation,500.0,,test,500.0,1.0,,,,,,,,,
265,,html-keyboard-response,265,288205,0.0-3.1-42.1,,<div class = bigbox><div class = centerbox><div class = gng_number><div class = cue-text><div  id = stim1></div></div></div></div></div>,,test_trial,1500.0,,test,1000.0,1.0,",",go,"[',']",0,,,,,
266,,html-keyboard-response,266,288584,0.0-3.1-43.1,,<div class = centerbox><div class = fixation>+</div></div>,,test_ITI,378.58420676233203,,test,378.58420676233203,1.0,,,,,"{'min': 0, 'max': 5, 'mean': 0.5}",,,,
267,,html-keyboard-response,267,289088,0.0-3.1-44.1,,<div class = centerbox><div class = fixation>+</div></div>,,test_fixation,500.0,,test,500.0,1.0,,,,,,,,,
268,,html-keyboard-response,268,290592,0.0-3.1-45.1,,<div class = bigbox><div class = centerbox><div class = gng_number><div class = cue-text><div  id = stim1></div></div></div></div></div>,,test_trial,1500.0,,test,1000.0,1.0,",",go,"[',']",0,,,,,
269,,html-keyboard-response,269,290997,0.0-3.1-46.1,,<div class = centerbox><div class = fixation>+</div></div>,,test_ITI,402.9685706943192,,test,402.9685706943192,1.0,,,,,"{'min': 0, 'max': 5, 'mean': 0.5}",,,,
270,,html-keyboard-response,270,291499,0.0-3.1-47.1,,<div class = centerbox><div class = fixation>+</div></div>,,test_fixation,500.0,,test,500.0,1.0,,,,,,,,,
271,,html-keyboard-response,271,293006,0.0-3.1-48.1,,<div class = bigbox><div class = centerbox><div class = gng_number><div class = cue-text><div  id = stim1></div></div></div></div></div>,,test_trial,1500.0,,test,1000.0,1.0,",",go,"[',']",0,,,,,
272,,html-keyboard-response,272,293917,0.0-3.1-49.1,,<div class = centerbox><div class = fixation>+</div></div>,,test_ITI,908.1927430435059,,test,908.1927430435059,1.0,,,,,"{'min': 0, 'max': 5, 'mean': 0.5}",,,,
273,,html-keyboard-response,273,294421,0.0-3.1-50.1,,<div class = centerbox><div class = fixation>+</div></div>,,test_fixation,500.0,,test,500.0,1.0,,,,,,,,,
274,,html-keyboard-response,274,295923,0.0-3.1-51.1,,<div class = bigbox><div class = centerbox><div class = gng_number><div class = cue-text><div  id = stim1></div></div></div></div></div>,,test_trial,1500.0,,test,1000.0,1.0,",",go,"[',']",0,,,,,
275,,html-keyboard-response,275,296237,0.0-3.1-52.1,,<div class = centerbox><div class = fixation>+</div></div>,,test_ITI,309.6918685254349,,test,309.6918685254349,1.0,,,,,"{'min': 0, 'max': 5, 'mean': 0.5}",,,,
276,,html-keyboard-response,276,296742,0.0-3.1-53.1,,<div class = centerbox><div class = fixation>+</div></div>,,test_fixation,500.0,,test,500.0,1.0,,,,,,,,,
277,,html-keyboard-response,277,298249,0.0-3.1-54.1,,<div class = bigbox><div class = centerbox><div class = gng_number><div class = cue-text><div  id = stim1></div></div></div></div></div>,,test_trial,1500.0,,test,1000.0,1.0,",",go,"[',']",0,,,,,
278,,html-keyboard-response,278,298344,0.0-3.1-55.1,,<div class = centerbox><div class = fixation>+</div></div>,,test_ITI,89.12097316433328,,test,89.12097316433328,1.0,,,,,"{'min': 0, 'max': 5, 'mean': 0.5}",,,,
279,,html-keyboard-response,279,298847,0.0-3.1-56.1,,<div class = centerbox><div class = fixation>+</div></div>,,test_fixation,500.0,,test,500.0,1.0,,,,,,,,,
280,,html-keyboard-response,280,300353,0.0-3.1-57.1,,<div class = bigbox><div class = centerbox><div class = gng_number><div class = cue-text><div  id = stim1></div></div></div></div></div>,,test_trial,1500.0,,test,1000.0,1.0,",",go,"[',']",0,,,,,
281,,html-keyboard-response,281,300597,0.0-3.1-58.1,,<div class = centerbox><div class = fixation>+</div></div>,,test_ITI,238.7451591511306,,test,238.7451591511306,1.0,,,,,"{'min': 0, 'max': 5, 'mean': 0.5}",,,,
282,,html-keyboard-response,282,301102,0.0-3.1-59.1,,<div class = centerbox><div class = fixation>+</div></div>,,test_fixation,500.0,,test,500.0,1.0,,,,,,,,,
283,,html-keyboard-response,283,302609,0.0-3.1-60.1,,<div class = bigbox><div class = centerbox><div class = gng_number><div class = cue-text><div id = stim2></div></div></div></div></div>,,test_trial,1500.0,,test,1000.0,1.0,,nogo,"[',']",1,,,,,
284,,html-keyboard-response,284,302932,0.0-3.1-61.1,,<div class = centerbox><div class = fixation>+</div></div>,,test_ITI,316.7646453249491,,test,316.7646453249491,1.0,,,,,"{'min': 0, 'max': 5, 'mean': 0.5}",,,,
285,,html-keyboard-response,285,303437,0.0-3.1-62.1,,<div class = centerbox><div class = fixation>+</div></div>,,test_fixation,500.0,,test,500.0,1.0,,,,,,,,,
286,,html-keyboard-response,286,304939,0.0-3.1-63.1,,<div class = bigbox><div class = centerbox><div class = gng_number><div class = cue-text><div  id = stim1></div></div></div></div></div>,,test_trial,1500.0,,test,1000.0,1.0,",",go,"[',']",0,,,,,
287,,html-keyboard-response,287,305301,0.0-3.1-64.1,,<div class = centerbox><div class = fixation>+</div></div>,,test_ITI,359.93822242565113,,test,359.93822242565113,1.0,,,,,"{'min': 0, 'max': 5, 'mean': 0.5}",,,,
288,,html-keyboard-response,288,305806,0.0-3.1-65.1,,<div class = centerbox><div class = fixation>+</div></div>,,test_fixation,500.0,,test,500.0,1.0,,,,,,,,,
289,,html-keyboard-response,289,307311,0.0-3.1-66.1,,<div class = bigbox><div class = centerbox><div class = gng_number><div class = cue-text><div id = stim2></div></div></div></div></div>,,test_trial,1500.0,,test,1000.0,1.0,,nogo,"[',']",1,,,,,
290,,html-keyboard-response,290,307861,0.0-3.1-67.1,,<div class = centerbox><div class = fixation>+</div></div>,,test_ITI,547.2016449411714,,test,547.2016449411714,1.0,,,,,"{'min': 0, 'max': 5, 'mean': 0.5}",,,,
291,,html-keyboard-response,291,308365,0.0-3.1-68.1,,<div class = centerbox><div class = fixation>+</div></div>,,test_fixation,500.0,,test,500.0,1.0,,,,,,,,,
292,,html-keyboard-response,292,309872,0.0-3.1-69.1,,<div class = bigbox><div class = centerbox><div class = gng_number><div class = cue-text><div  id = stim1></div></div></div></div></div>,,test_trial,1500.0,,test,1000.0,1.0,",",go,"[',']",0,,,,,
293,,html-keyboard-response,293,310478,0.0-3.1-70.1,,<div class = centerbox><div class = fixation>+</div></div>,,test_ITI,600.4119452161789,,test,600.4119452161789,1.0,,,,,"{'min': 0, 'max': 5, 'mean': 0.5}",,,,
294,,html-keyboard-response,294,310984,0.0-3.1-71.1,,<div class = centerbox><div class = fixation>+</div></div>,,test_fixation,500.0,,test,500.0,1.0,,,,,,,,,
295,,html-keyboard-response,295,312490,0.0-3.1-72.1,,<div class = bigbox><div class = centerbox><div class = gng_number><div class = cue-text><div  id = stim1></div></div></div></div></div>,,test_trial,1500.0,,test,1000.0,1.0,",",go,"[',']",0,,,,,
296,,html-keyboard-response,296,313113,0.0-3.1-73.1,,<div class = centerbox><div class = fixation>+</div></div>,,test_ITI,617.0052028636794,,test,617.0052028636794,1.0,,,,,"{'min': 0, 'max': 5, 'mean': 0.5}",,,,
297,,html-keyboard-response,297,313620,0.0-3.1-74.1,,<div class = centerbox><div class = fixation>+</div></div>,,test_fixation,500.0,,test,500.0,1.0,,,,,,,,,
298,,html-keyboard-response,298,315126,0.0-3.1-75.1,,<div class = bigbox><div class = centerbox><div class = gng_number><div class = cue-text><div  id = stim1></div></div></div></div></div>,,test_trial,1500.0,,test,1000.0,1.0,",",go,"[',']",0,,,,,
299,,html-keyboard-response,299,315236,0.0-3.1-76.1,,<div class = centerbox><div class = fixation>+</div></div>,,test_ITI,107.36612255171534,,test,107.36612255171534,1.0,,,,,"{'min': 0, 'max': 5, 'mean': 0.5}",,,,
300,,html-keyboard-response,300,315740,0.0-3.1-77.1,,<div class = centerbox><div class = fixation>+</div></div>,,test_fixation,500.0,,test,500.0,1.0,,,,,,,,,
301,,html-keyboard-response,301,317246,0.0-3.1-78.1,,<div class = bigbox><div class = centerbox><div class = gng_number><div class = cue-text><div  id = stim1></div></div></div></div></div>,,test_trial,1500.0,,test,1000.0,1.0,",",go,"[',']",0,,,,,
302,,html-keyboard-response,302,317728,0.0-3.1-79.1,,<div class = centerbox><div class = fixation>+</div></div>,,test_ITI,475.27008263424386,,test,475.27008263424386,1.0,,,,,"{'min': 0, 'max': 5, 'mean': 0.5}",,,,
303,,html-keyboard-response,303,318232,0.0-3.1-80.1,,<div class = centerbox><div class = fixation>+</div></div>,,test_fixation,500.0,,test,500.0,1.0,,,,,,,,,
304,,html-keyboard-response,304,319738,0.0-3.1-81.1,,<div class = bigbox><div class = centerbox><div class = gng_number><div class = cue-text><div id = stim2></div></div></div></div></div>,,test_trial,1500.0,,test,1000.0,1.0,,nogo,"[',']",1,,,,,
305,,html-keyboard-response,305,320978,0.0-3.1-82.1,,<div class = centerbox><div class = fixation>+</div></div>,,test_ITI,1236.5586959163256,,test,1236.5586959163256,1.0,,,,,"{'min': 0, 'max': 5, 'mean': 0.5}",,,,
306,,html-keyboard-response,306,321481,0.0-3.1-83.1,,<div class = centerbox><div class = fixation>+</div></div>,,test_fixation,500.0,,test,500.0,1.0,,,,,,,,,
307,,html-keyboard-response,307,322985,0.0-3.1-84.1,,<div class = bigbox><div class = centerbox><div class = gng_number><div class = cue-text><div  id = stim1></div></div></div></div></div>,,test_trial,1500.0,,test,1000.0,1.0,",",go,"[',']",0,,,,,
308,,html-keyboard-response,308,323174,0.0-3.1-85.1,,<div class = centerbox><div class = fixation>+</div></div>,,test_ITI,183.4013087690507,,test,183.4013087690507,1.0,,,,,"{'min': 0, 'max': 5, 'mean': 0.5}",,,,
309,,html-keyboard-response,309,323678,0.0-3.1-86.1,,<div class = centerbox><div class = fixation>+</div></div>,,test_fixation,500.0,,test,500.0,1.0,,,,,,,,,
310,,html-keyboard-response,310,325180,0.0-3.1-87.1,,<div class = bigbox><div class = centerbox><div class = gng_number><div class = cue-text><div  id = stim1></div></div></div></div></div>,,test_trial,1500.0,,test,1000.0,1.0,",",go,"[',']",0,,,,,
311,,html-keyboard-response,311,325455,0.0-3.1-88.1,,<div class = centerbox><div class = fixation>+</div></div>,,test_ITI,269.3102218022367,,test,269.3102218022367,1.0,,,,,"{'min': 0, 'max': 5, 'mean': 0.5}",,,,
312,,html-keyboard-response,312,325957,0.0-3.1-89.1,,<div class = centerbox><div class = fixation>+</div></div>,,test_fixation,500.0,,test,500.0,1.0,,,,,,,,,
313,,html-keyboard-response,313,327462,0.0-3.1-90.1,,<div class = bigbox><div class = centerbox><div class = gng_number><div class = cue-text><div  id = stim1></div></div></div></div></div>,,test_trial,1500.0,,test,1000.0,1.0,",",go,"[',']",0,,,,,
314,,html-keyboard-response,314,327621,0.0-3.1-91.1,,<div class = centerbox><div class = fixation>+</div></div>,,test_ITI,156.19086413551202,,test,156.19086413551202,1.0,,,,,"{'min': 0, 'max': 5, 'mean': 0.5}",,,,
315,,html-keyboard-response,315,328124,0.0-3.1-92.1,,<div class = centerbox><div class = fixation>+</div></div>,,test_fixation,500.0,,test,500.0,1.0,,,,,,,,,
316,,html-keyboard-response,316,329631,0.0-3.1-93.1,,<div class = bigbox><div class = centerbox><div class = gng_number><div class = cue-text><div id = stim2></div></div></div></div></div>,,test_trial,1500.0,,test,1000.0,1.0,,nogo,"[',']",1,,,,,
317,,html-keyboard-response,317,331187,0.0-3.1-94.1,,<div class = centerbox><div class = fixation>+</div></div>,,test_ITI,1550.4446964832816,,test,1550.4446964832816,1.0,,,,,"{'min': 0, 'max': 5, 'mean': 0.5}",,,,
318,,html-keyboard-response,318,331690,0.0-3.1-95.1,,<div class = centerbox><div class = fixation>+</div></div>,,test_fixation,500.0,,test,500.0,1.0,,,,,,,,,
319,,html-keyboard-response,319,333197,0.0-3.1-96.1,,<div class = bigbox><div class = centerbox><div class = gng_number><div class = cue-text><div  id = stim1></div></div></div></div></div>,,test_trial,1500.0,,test,1000.0,1.0,",",go,"[',']",0,,,,,
320,,html-keyboard-response,320,333655,0.0-3.1-97.1,,<div class = centerbox><div class = fixation>+</div></div>,,test_ITI,455.6493087314505,,test,455.6493087314505,1.0,,,,,"{'min': 0, 'max': 5, 'mean': 0.5}",,,,
321,,html-keyboard-response,321,334159,0.0-3.1-98.1,,<div class = centerbox><div class = fixation>+</div></div>,,test_fixation,500.0,,test,500.0,1.0,,,,,,,,,
322,,html-keyboard-response,322,335663,0.0-3.1-99.1,,<div class = bigbox><div class = centerbox><div class = gng_number><div class = cue-text><div  id = stim1></div></div></div></div></div>,,test_trial,1500.0,,test,1000.0,1.0,",",go,"[',']",0,,,,,
323,,html-keyboard-response,323,335702,0.0-3.1-100.1,,<div class = centerbox><div class = fixation>+</div></div>,,test_ITI,33.064652536208,,test,33.064652536208,1.0,,,,,"{'min': 0, 'max': 5, 'mean': 0.5}",,,,
324,,html-keyboard-response,324,336206,0.0-3.1-101.1,,<div class = centerbox><div class = fixation>+</div></div>,,test_fixation,500.0,,test,500.0,1.0,,,,,,,,,
325,,html-keyboard-response,325,337712,0.0-3.1-102.1,,<div class = bigbox><div class = centerbox><div class = gng_number><div class = cue-text><div  id = stim1></div></div></div></div></div>,,test_trial,1500.0,,test,1000.0,1.0,",",go,"[',']",0,,,,,
326,,html-keyboard-response,326,337933,0.0-3.1-103.1,,<div class = centerbox><div class = fixation>+</div></div>,,test_ITI,220.40190510526722,,test,220.40190510526722,1.0,,,,,"{'min': 0, 'max': 5, 'mean': 0.5}",,,,
327,,html-keyboard-response,327,338438,0.0-3.1-104.1,,<div class = centerbox><div class = fixation>+</div></div>,,test_fixation,500.0,,test,500.0,1.0,,,,,,,,,
328,,html-keyboard-response,328,339944,0.0-3.1-105.1,,<div class = bigbox><div class = centerbox><div class = gng_number><div class = cue-text><div  id = stim1></div></div></div></div></div>,,test_trial,1500.0,,test,1000.0,1.0,",",go,"[',']",0,,,,,
329,,html-keyboard-response,329,340343,0.0-3.1-106.1,,<div class = centerbox><div class = fixation>+</div></div>,,test_ITI,395.03307514205693,,test,395.03307514205693,1.0,,,,,"{'min': 0, 'max': 5, 'mean': 0.5}",,,,
330,,html-keyboard-response,330,340846,0.0-3.1-107.1,,<div class = centerbox><div class = fixation>+</div></div>,,test_fixation,500.0,,test,500.0,1.0,,,,,,,,,
331,,html-keyboard-response,331,342347,0.0-3.1-108.1,,<div class = bigbox><div class = centerbox><div class = gng_number><div class = cue-text><div  id = stim1></div></div></div></div></div>,,test_trial,1500.0,,test,1000.0,1.0,",",go,"[',']",0,,,,,
332,,html-keyboard-response,332,342484,0.0-3.1-109.1,,<div class = centerbox><div class = fixation>+</div></div>,,test_ITI,130.1666480215626,,test,130.1666480215626,1.0,,,,,"{'min': 0, 'max': 5, 'mean': 0.5}",,,,
333,,html-keyboard-response,333,342987,0.0-3.1-110.1,,<div class = centerbox><div class = fixation>+</div></div>,,test_fixation,500.0,,test,500.0,1.0,,,,,,,,,
334,,html-keyboard-response,334,344490,0.0-3.1-111.1,,<div class = bigbox><div class = centerbox><div class = gng_number><div class = cue-text><div id = stim2></div></div></div></div></div>,,test_trial,1500.0,,test,1000.0,1.0,,nogo,"[',']",1,,,,,
335,,html-keyboard-response,335,344763,0.0-3.1-112.1,,<div class = centerbox><div class = fixation>+</div></div>,,test_ITI,268.60781207614025,,test,268.60781207614025,1.0,,,,,"{'min': 0, 'max': 5, 'mean': 0.5}",,,,
336,,html-keyboard-response,336,345267,0.0-3.1-113.1,,<div class = centerbox><div class = fixation>+</div></div>,,test_fixation,500.0,,test,500.0,1.0,,,,,,,,,
337,,html-keyboard-response,337,346774,0.0-3.1-114.1,,<div class = bigbox><div class = centerbox><div class = gng_number><div class = cue-text><div  id = stim1></div></div></div></div></div>,,test_trial,1500.0,,test,1000.0,1.0,",",go,"[',']",0,,,,,
338,,html-keyboard-response,338,347118,0.0-3.1-115.1,,<div class = centerbox><div class = fixation>+</div></div>,,test_ITI,338.00313837920544,,test,338.00313837920544,1.0,,,,,"{'min': 0, 'max': 5, 'mean': 0.5}",,,,
339,,html-keyboard-response,339,347622,0.0-3.1-116.1,,<div class = centerbox><div class = fixation>+</div></div>,,test_fixation,500.0,,test,500.0,1.0,,,,,,,,,
340,,html-keyboard-response,340,349129,0.0-3.1-117.1,,<div class = bigbox><div class = centerbox><div class = gng_number><div class = cue-text><div  id = stim1></div></div></div></div></div>,,test_trial,1500.0,,test,1000.0,1.0,",",go,"[',']",0,,,,,
341,,html-keyboard-response,341,349986,0.0-3.1-118.1,,<div class = centerbox><div class = fixation>+</div></div>,,test_ITI,851.6707752543444,,test,851.6707752543444,1.0,,,,,"{'min': 0, 'max': 5, 'mean': 0.5}",,,,
342,,html-keyboard-response,342,350492,0.0-3.1-119.1,,<div class = centerbox><div class = fixation>+</div></div>,,test_fixation,500.0,,test,500.0,1.0,,,,,,,,,
343,,html-keyboard-response,343,351998,0.0-3.1-120.1,,<div class = bigbox><div class = centerbox><div class = gng_number><div class = cue-text><div  id = stim1></div></div></div></div></div>,,test_trial,1500.0,,test,1000.0,1.0,",",go,"[',']",0,,,,,
344,,html-keyboard-response,344,352086,0.0-3.1-121.1,,<div class = centerbox><div class = fixation>+</div></div>,,test_ITI,82.48787030356495,,test,82.48787030356495,1.0,,,,,"{'min': 0, 'max': 5, 'mean': 0.5}",,,,
345,,html-keyboard-response,345,352589,0.0-3.1-122.1,,<div class = centerbox><div class = fixation>+</div></div>,,test_fixation,500.0,,test,500.0,1.0,,,,,,,,,
346,,html-keyboard-response,346,354096,0.0-3.1-123.1,,<div class = bigbox><div class = centerbox><div class = gng_number><div class = cue-text><div  id = stim1></div></div></div></div></div>,,test_trial,1500.0,,test,1000.0,1.0,",",go,"[',']",0,,,,,
347,,html-keyboard-response,347,354295,0.0-3.1-124.1,,<div class = centerbox><div class = fixation>+</div></div>,,test_ITI,193.5362191088348,,test,193.5362191088348,1.0,,,,,"{'min': 0, 'max': 5, 'mean': 0.5}",,,,
348,,html-keyboard-response,348,354799,0.0-3.1-125.1,,<div class = centerbox><div class = fixation>+</div></div>,,test_fixation,500.0,,test,500.0,1.0,,,,,,,,,
349,,html-keyboard-response,349,356306,0.0-3.1-126.1,,<div class = bigbox><div class = centerbox><div class = gng_number><div class = cue-text><div  id = stim1></div></div></div></div></div>,,test_trial,1500.0,,test,1000.0,1.0,",",go,"[',']",0,,,,,
350,,html-keyboard-response,350,356362,0.0-3.1-127.1,,<div class = centerbox><div class = fixation>+</div></div>,,test_ITI,55.3116039032256,,test,55.3116039032256,1.0,,,,,"{'min': 0, 'max': 5, 'mean': 0.5}",,,,
351,,html-keyboard-response,351,356865,0.0-3.1-128.1,,<div class = centerbox><div class = fixation>+</div></div>,,test_fixation,500.0,,test,500.0,1.0,,,,,,,,,
352,,html-keyboard-response,352,358371,0.0-3.1-129.1,,<div class = bigbox><div class = centerbox><div class = gng_number><div class = cue-text><div  id = stim1></div></div></div></div></div>,,test_trial,1500.0,,test,1000.0,1.0,",",go,"[',']",0,,,,,
353,,html-keyboard-response,353,358539,0.0-3.1-130.1,,<div class = centerbox><div class = fixation>+</div></div>,,test_ITI,165.8317117152497,,test,165.8317117152497,1.0,,,,,"{'min': 0, 'max': 5, 'mean': 0.5}",,,,
354,,html-keyboard-response,354,359042,0.0-3.1-131.1,,<div class = centerbox><div class = fixation>+</div></div>,,test_fixation,500.0,,test,500.0,1.0,,,,,,,,,
355,,html-keyboard-response,355,360549,0.0-3.1-132.1,,<div class = bigbox><div class = centerbox><div class = gng_number><div class = cue-text><div  id = stim1></div></div></div></div></div>,,test_trial,1500.0,,test,1000.0,1.0,",",go,"[',']",0,,,,,
356,,html-keyboard-response,356,360575,0.0-3.1-133.1,,<div class = centerbox><div class = fixation>+</div></div>,,test_ITI,23.01603926672314,,test,23.01603926672314,1.0,,,,,"{'min': 0, 'max': 5, 'mean': 0.5}",,,,
357,,html-keyboard-response,357,361078,0.0-3.1-134.1,,<div class = centerbox><div class = fixation>+</div></div>,,test_fixation,500.0,,test,500.0,1.0,,,,,,,,,
358,,html-keyboard-response,358,362584,0.0-3.1-135.1,,<div class = bigbox><div class = centerbox><div class = gng_number><div class = cue-text><div  id = stim1></div></div></div></div></div>,,test_trial,1500.0,,test,1000.0,1.0,",",go,"[',']",0,,,,,
359,,html-keyboard-response,359,362695,0.0-3.1-136.1,,<div class = centerbox><div class = fixation>+</div></div>,,test_ITI,104.36551516050426,,test,104.36551516050426,1.0,,,,,"{'min': 0, 'max': 5, 'mean': 0.5}",,,,
360,,html-keyboard-response,360,363199,0.0-3.1-137.1,,<div class = centerbox><div class = fixation>+</div></div>,,test_fixation,500.0,,test,500.0,1.0,,,,,,,,,
361,,html-keyboard-response,361,364706,0.0-3.1-138.1,,<div class = bigbox><div class = centerbox><div class = gng_number><div class = cue-text><div  id = stim1></div></div></div></div></div>,,test_trial,1500.0,,test,1000.0,1.0,",",go,"[',']",0,,,,,
362,,html-keyboard-response,362,364731,0.0-3.1-139.1,,<div class = centerbox><div class = fixation>+</div></div>,,test_ITI,22.35564216110009,,test,22.35564216110009,1.0,,,,,"{'min': 0, 'max': 5, 'mean': 0.5}",,,,
363,,html-keyboard-response,363,365234,0.0-3.1-140.1,,<div class = centerbox><div class = fixation>+</div></div>,,test_fixation,500.0,,test,500.0,1.0,,,,,,,,,
364,,html-keyboard-response,364,366739,0.0-3.1-141.1,,<div class = bigbox><div class = centerbox><div class = gng_number><div class = cue-text><div  id = stim1></div></div></div></div></div>,,test_trial,1500.0,,test,1000.0,1.0,",",go,"[',']",0,,,,,
365,,html-keyboard-response,365,367533,0.0-3.1-142.1,,<div class = centerbox><div class = fixation>+</div></div>,,test_ITI,787.790653710116,,test,787.790653710116,1.0,,,,,"{'min': 0, 'max': 5, 'mean': 0.5}",,,,
366,,html-keyboard-response,366,368039,0.0-3.1-143.1,,<div class = centerbox><div class = fixation>+</div></div>,,test_fixation,500.0,,test,500.0,1.0,,,,,,,,,
367,,html-keyboard-response,367,369545,0.0-3.1-144.1,365.0,<div class = bigbox><div class = centerbox><div class = gng_number><div class = cue-text><div  id = stim1></div></div></div></div></div>,",",test_trial,1500.0,,test,1000.0,1.0,",",go,"[',']",1,,,,,
368,,html-keyboard-response,368,369876,0.0-3.1-145.1,,<div class = centerbox><div class = fixation>+</div></div>,,test_ITI,329.60160064428726,,test,329.60160064428726,1.0,,,,,"{'min': 0, 'max': 5, 'mean': 0.5}",,,,
369,,html-keyboard-response,369,370381,0.0-3.1-146.1,,<div class = centerbox><div class = fixation>+</div></div>,,test_fixation,500.0,,test,500.0,1.0,,,,,,,,,
370,,html-keyboard-response,370,371888,0.0-3.1-147.1,,<div class = bigbox><div class = centerbox><div class = gng_number><div class = cue-text><div id = stim2></div></div></div></div></div>,,test_trial,1500.0,,test,1000.0,1.0,,nogo,"[',']",1,,,,,
371,,html-keyboard-response,371,372803,0.0-3.1-148.1,,<div class = centerbox><div class = fixation>+</div></div>,,test_ITI,912.7381601753466,,test,912.7381601753466,1.0,,,,,"{'min': 0, 'max': 5, 'mean': 0.5}",,,,
372,,html-keyboard-response,372,373307,0.0-3.1-149.1,,<div class = centerbox><div class = fixation>+</div></div>,,test_fixation,500.0,,test,500.0,1.0,,,,,,,,,
373,,html-keyboard-response,373,374808,0.0-3.1-150.1,374.0,<div class = bigbox><div class = centerbox><div class = gng_number><div class = cue-text><div  id = stim1></div></div></div></div></div>,",",test_trial,1500.0,,test,1000.0,1.0,",",go,"[',']",1,,,,,
374,,html-keyboard-response,374,374985,0.0-3.1-151.1,,<div class = centerbox><div class = fixation>+</div></div>,,test_ITI,173.5588428280792,,test,173.5588428280792,1.0,,,,,"{'min': 0, 'max': 5, 'mean': 0.5}",,,,
375,,html-keyboard-response,375,375489,0.0-3.1-152.1,,<div class = centerbox><div class = fixation>+</div></div>,,test_fixation,500.0,,test,500.0,1.0,,,,,,,,,
376,,html-keyboard-response,376,376995,0.0-3.1-153.1,413.0,<div class = bigbox><div class = centerbox><div class = gng_number><div class = cue-text><div  id = stim1></div></div></div></div></div>,",",test_trial,1500.0,,test,1000.0,1.0,",",go,"[',']",1,,,,,
377,,html-keyboard-response,377,377005,0.0-3.1-154.1,,<div class = centerbox><div class = fixation>+</div></div>,,test_ITI,8.412194912666171,,test,8.412194912666171,1.0,,,,,"{'min': 0, 'max': 5, 'mean': 0.5}",,,,
378,,html-keyboard-response,378,377507,0.0-3.1-155.1,,<div class = centerbox><div class = fixation>+</div></div>,,test_fixation,500.0,,test,500.0,1.0,,,,,,,,,
379,,html-keyboard-response,379,379009,0.0-3.1-156.1,820.0,<div class = bigbox><div class = centerbox><div class = gng_number><div class = cue-text><div  id = stim1></div></div></div></div></div>,",",test_trial,1500.0,,test,1000.0,1.0,",",go,"[',']",1,,,,,
380,,html-keyboard-response,380,379708,0.0-3.1-157.1,,<div class = centerbox><div class = fixation>+</div></div>,,test_ITI,697.766248584807,,test,697.766248584807,1.0,,,,,"{'min': 0, 'max': 5, 'mean': 0.5}",,,,
381,,html-keyboard-response,381,380214,0.0-3.1-158.1,,<div class = centerbox><div class = fixation>+</div></div>,,test_fixation,500.0,,test,500.0,1.0,,,,,,,,,
382,,html-keyboard-response,382,381721,0.0-3.1-159.1,413.0,<div class = bigbox><div class = centerbox><div class = gng_number><div class = cue-text><div  id = stim1></div></div></div></div></div>,",",test_trial,1500.0,,test,1000.0,1.0,",",go,"[',']",1,,,,,
383,,html-keyboard-response,383,381978,0.0-3.1-160.1,,<div class = centerbox><div class = fixation>+</div></div>,,test_ITI,251.15450562887065,,test,251.15450562887065,1.0,,,,,"{'min': 0, 'max': 5, 'mean': 0.5}",,,,
384,,html-keyboard-response,384,382483,0.0-3.1-161.1,,<div class = centerbox><div class = fixation>+</div></div>,,test_fixation,500.0,,test,500.0,1.0,,,,,,,,,
385,,html-keyboard-response,385,383990,0.0-3.1-162.1,,<div class = bigbox><div class = centerbox><div class = gng_number><div class = cue-text><div  id = stim1></div></div></div></div></div>,,test_trial,1500.0,,test,1000.0,1.0,",",go,"[',']",0,,,,,
386,,html-keyboard-response,386,384165,0.0-3.1-163.1,,<div class = centerbox><div class = fixation>+</div></div>,,test_ITI,171.17679147792177,,test,171.17679147792177,1.0,,,,,"{'min': 0, 'max': 5, 'mean': 0.5}",,,,
387,,html-keyboard-response,387,384669,0.0-3.1-164.1,,<div class = centerbox><div class = fixation>+</div></div>,,test_fixation,500.0,,test,500.0,1.0,,,,,,,,,
388,,html-keyboard-response,388,386175,0.0-3.1-165.1,,<div class = bigbox><div class = centerbox><div class = gng_number><div class = cue-text><div  id = stim1></div></div></div></div></div>,,test_trial,1500.0,,test,1000.0,1.0,",",go,"[',']",0,,,,,
389,,html-keyboard-response,389,386626,0.0-3.1-166.1,,<div class = centerbox><div class = fixation>+</div></div>,,test_ITI,448.7054392076022,,test,448.7054392076022,1.0,,,,,"{'min': 0, 'max': 5, 'mean': 0.5}",,,,
390,,html-keyboard-response,390,387132,0.0-3.1-167.1,,<div class = centerbox><div class = fixation>+</div></div>,,test_fixation,500.0,,test,500.0,1.0,,,,,,,,,
391,,html-keyboard-response,391,388638,0.0-3.1-168.1,,<div class = bigbox><div class = centerbox><div class = gng_number><div class = cue-text><div  id = stim1></div></div></div></div></div>,,test_trial,1500.0,,test,1000.0,1.0,",",go,"[',']",0,,,,,
392,,html-keyboard-response,392,388805,0.0-3.1-169.1,,<div class = centerbox><div class = fixation>+</div></div>,,test_ITI,166.66707146337612,,test,166.66707146337612,1.0,,,,,"{'min': 0, 'max': 5, 'mean': 0.5}",,,,
393,,html-keyboard-response,393,389311,0.0-3.1-170.1,,<div class = centerbox><div class = fixation>+</div></div>,,test_fixation,500.0,,test,500.0,1.0,,,,,,,,,
394,,html-keyboard-response,394,390814,0.0-3.1-171.1,,<div class = bigbox><div class = centerbox><div class = gng_number><div class = cue-text><div  id = stim1></div></div></div></div></div>,,test_trial,1500.0,,test,1000.0,1.0,",",go,"[',']",0,,,,,
395,,html-keyboard-response,395,390911,0.0-3.1-172.1,,<div class = centerbox><div class = fixation>+</div></div>,,test_ITI,95.727349180463,,test,95.727349180463,1.0,,,,,"{'min': 0, 'max': 5, 'mean': 0.5}",,,,
396,,html-keyboard-response,396,391413,0.0-3.1-173.1,,<div class = centerbox><div class = fixation>+</div></div>,,test_fixation,500.0,,test,500.0,1.0,,,,,,,,,
397,,html-keyboard-response,397,392915,0.0-3.1-174.1,,<div class = bigbox><div class = centerbox><div class = gng_number><div class = cue-text><div id = stim2></div></div></div></div></div>,,test_trial,1500.0,,test,1000.0,1.0,,nogo,"[',']",1,,,,,
398,,html-keyboard-response,398,393910,0.0-3.1-175.1,,<div class = centerbox><div class = fixation>+</div></div>,,test_ITI,989.8232194552814,,test,989.8232194552814,1.0,,,,,"{'min': 0, 'max': 5, 'mean': 0.5}",,,,
399,,html-keyboard-response,399,394414,0.0-3.1-176.1,,<div class = centerbox><div class = fixation>+</div></div>,,test_fixation,500.0,,test,500.0,1.0,,,,,,,,,
400,,html-keyboard-response,400,395916,0.0-3.1-177.1,,<div class = bigbox><div class = centerbox><div class = gng_number><div class = cue-text><div id = stim2></div></div></div></div></div>,,test_trial,1500.0,,test,1000.0,1.0,,nogo,"[',']",1,,,,,
401,,html-keyboard-response,401,397304,0.0-3.1-178.1,,<div class = centerbox><div class = fixation>+</div></div>,,test_ITI,1382.4459932021355,,test,1382.4459932021355,1.0,,,,,"{'min': 0, 'max': 5, 'mean': 0.5}",,,,
402,,html-keyboard-response,402,397806,0.0-3.1-179.1,,<div class = centerbox><div class = fixation>+</div></div>,,test_fixation,500.0,,test,500.0,1.0,,,,,,,,,
403,,html-keyboard-response,403,399313,0.0-3.1-180.1,,<div class = bigbox><div class = centerbox><div class = gng_number><div class = cue-text><div  id = stim1></div></div></div></div></div>,,test_trial,1500.0,,test,1000.0,1.0,",",go,"[',']",0,,,,,
404,,html-keyboard-response,404,399558,0.0-3.1-181.1,,<div class = centerbox><div class = fixation>+</div></div>,,test_ITI,239.36461983311824,,test,239.36461983311824,1.0,,,,,"{'min': 0, 'max': 5, 'mean': 0.5}",,,,
405,,html-keyboard-response,405,400064,0.0-3.1-182.1,,<div class = centerbox><div class = fixation>+</div></div>,,test_fixation,500.0,,test,500.0,1.0,,,,,,,,,
406,,html-keyboard-response,406,401570,0.0-3.1-183.1,,<div class = bigbox><div class = centerbox><div class = gng_number><div class = cue-text><div  id = stim1></div></div></div></div></div>,,test_trial,1500.0,,test,1000.0,1.0,",",go,"[',']",0,,,,,
407,,html-keyboard-response,407,401690,0.0-3.1-184.1,,<div class = centerbox><div class = fixation>+</div></div>,,test_ITI,117.56218050743834,,test,117.56218050743834,1.0,,,,,"{'min': 0, 'max': 5, 'mean': 0.5}",,,,
408,,html-keyboard-response,408,402193,0.0-3.1-185.1,,<div class = centerbox><div class = fixation>+</div></div>,,test_fixation,500.0,,test,500.0,1.0,,,,,,,,,
409,,html-keyboard-response,409,403700,0.0-3.1-186.1,,<div class = bigbox><div class = centerbox><div class = gng_number><div class = cue-text><div  id = stim1></div></div></div></div></div>,,test_trial,1500.0,,test,1000.0,1.0,",",go,"[',']",0,,,,,
410,,html-keyboard-response,410,404140,0.0-3.1-187.1,,<div class = centerbox><div class = fixation>+</div></div>,,test_ITI,436.31504178796575,,test,436.31504178796575,1.0,,,,,"{'min': 0, 'max': 5, 'mean': 0.5}",,,,
411,,html-keyboard-response,411,404644,0.0-3.1-188.1,,<div class = centerbox><div class = fixation>+</div></div>,,test_fixation,500.0,,test,500.0,1.0,,,,,,,,,
412,,html-keyboard-response,412,406150,0.0-3.1-189.1,,<div class = bigbox><div class = centerbox><div class = gng_number><div class = cue-text><div  id = stim1></div></div></div></div></div>,,test_trial,1500.0,,test,1000.0,1.0,",",go,"[',']",0,,,,,
413,,html-keyboard-response,413,406329,0.0-3.1-190.1,,<div class = centerbox><div class = fixation>+</div></div>,,test_ITI,174.30327365821444,,test,174.30327365821444,1.0,,,,,"{'min': 0, 'max': 5, 'mean': 0.5}",,,,
414,,html-keyboard-response,414,407966,0.0-3.2-0.2,1635.0,"<div class = bigbox><div class = picture_box><p class = block-text>
    <div class = centerbox><p class = block-text>Please take this time to read your feedback! This screen will advance automatically in 1 minute.</p><p class=block-text>You have completed 2 out of 3 blocks of trials.</p>
       <p class=""block-text"">Your accuracy is low. Remember: </p>
  <ul style=""text-align:left;"">
    <li>solid white square: respond</li>
    <li>outlined white square: do not respond</li>
  </ul>

      
        <p class=""block-text"">You have not been responding to some trials. Please respond on every trial that requires a response.</p>
      <p class=block-text>Press <i>enter</i> to continue.</p></div>
    </font></p></div></div>",enter,test_feedback,60000.0,,test,,,,,,,,,,,
415,,html-keyboard-response,415,410782,0.0-3.2-1.2-0.2,2815.0,,x,test_attention_check,,,test,,2.0,,,,True,,<p class='block-text'>Press the key for the third to last letter of the English alphabet.</p> <div class=block-text>This screen will advance automatically in 1 minute.</div>,88.0,,
416,,html-keyboard-response,416,411284,0.0-3.2-2.2,,<div class = centerbox><div class = fixation>+</div></div>,,test_fixation,500.0,,test,500.0,2.0,,,,,,,,,
417,,html-keyboard-response,417,412789,0.0-3.2-3.2,429.0,<div class = bigbox><div class = centerbox><div class = gng_number><div class = cue-text><div  id = stim1></div></div></div></div></div>,",",test_trial,1500.0,,test,1000.0,2.0,",",go,"[',']",1,,,,,
418,,html-keyboard-response,418,413074,0.0-3.2-4.2,,<div class = centerbox><div class = fixation>+</div></div>,,test_ITI,282.10152538758905,,test,282.10152538758905,2.0,,,,,"{'min': 0, 'max': 5, 'mean': 0.5}",,,,
419,,html-keyboard-response,419,413578,0.0-3.2-5.2,,<div class = centerbox><div class = fixation>+</div></div>,,test_fixation,500.0,,test,500.0,2.0,,,,,,,,,
420,,html-keyboard-response,420,415080,0.0-3.2-6.2,,<div class = bigbox><div class = centerbox><div class = gng_number><div class = cue-text><div  id = stim1></div></div></div></div></div>,,test_trial,1500.0,,test,1000.0,2.0,",",go,"[',']",0,,,,,
421,,html-keyboard-response,421,415414,0.0-3.2-7.2,,<div class = centerbox><div class = fixation>+</div></div>,,test_ITI,332.7460683523485,,test,332.7460683523485,2.0,,,,,"{'min': 0, 'max': 5, 'mean': 0.5}",,,,
422,,html-keyboard-response,422,415917,0.0-3.2-8.2,,<div class = centerbox><div class = fixation>+</div></div>,,test_fixation,500.0,,test,500.0,2.0,,,,,,,,,
423,,html-keyboard-response,423,417423,0.0-3.2-9.2,,<div class = bigbox><div class = centerbox><div class = gng_number><div class = cue-text><div  id = stim1></div></div></div></div></div>,,test_trial,1500.0,,test,1000.0,2.0,",",go,"[',']",0,,,,,
424,,html-keyboard-response,424,418152,0.0-3.2-10.2,,<div class = centerbox><div class = fixation>+</div></div>,,test_ITI,723.225462811309,,test,723.225462811309,2.0,,,,,"{'min': 0, 'max': 5, 'mean': 0.5}",,,,
425,,html-keyboard-response,425,418657,0.0-3.2-11.2,,<div class = centerbox><div class = fixation>+</div></div>,,test_fixation,500.0,,test,500.0,2.0,,,,,,,,,
426,,html-keyboard-response,426,420163,0.0-3.2-12.2,,<div class = bigbox><div class = centerbox><div class = gng_number><div class = cue-text><div  id = stim1></div></div></div></div></div>,,test_trial,1500.0,,test,1000.0,2.0,",",go,"[',']",0,,,,,
427,,html-keyboard-response,427,420366,0.0-3.2-13.2,,<div class = centerbox><div class = fixation>+</div></div>,,test_ITI,196.41651792427157,,test,196.41651792427157,2.0,,,,,"{'min': 0, 'max': 5, 'mean': 0.5}",,,,
428,,html-keyboard-response,428,420871,0.0-3.2-14.2,,<div class = centerbox><div class = fixation>+</div></div>,,test_fixation,500.0,,test,500.0,2.0,,,,,,,,,
429,,html-keyboard-response,429,422373,0.0-3.2-15.2,,<div class = bigbox><div class = centerbox><div class = gng_number><div class = cue-text><div  id = stim1></div></div></div></div></div>,,test_trial,1500.0,,test,1000.0,2.0,",",go,"[',']",0,,,,,
430,,html-keyboard-response,430,423827,0.0-3.2-16.2,,<div class = centerbox><div class = fixation>+</div></div>,,test_ITI,1447.88087174086,,test,1447.88087174086,2.0,,,,,"{'min': 0, 'max': 5, 'mean': 0.5}",,,,
431,,html-keyboard-response,431,424332,0.0-3.2-17.2,,<div class = centerbox><div class = fixation>+</div></div>,,test_fixation,500.0,,test,500.0,2.0,,,,,,,,,
432,,html-keyboard-response,432,425835,0.0-3.2-18.2,,<div class = bigbox><div class = centerbox><div class = gng_number><div class = cue-text><div id = stim2></div></div></div></div></div>,,test_trial,1500.0,,test,1000.0,2.0,,nogo,"[',']",1,,,,,
433,,html-keyboard-response,433,426166,0.0-3.2-19.2,,<div class = centerbox><div class = fixation>+</div></div>,,test_ITI,324.2522814043614,,test,324.2522814043614,2.0,,,,,"{'min': 0, 'max': 5, 'mean': 0.5}",,,,
434,,html-keyboard-response,434,426668,0.0-3.2-20.2,,<div class = centerbox><div class = fixation>+</div></div>,,test_fixation,500.0,,test,500.0,2.0,,,,,,,,,
435,,html-keyboard-response,435,428175,0.0-3.2-21.2,,<div class = bigbox><div class = centerbox><div class = gng_number><div class = cue-text><div  id = stim1></div></div></div></div></div>,,test_trial,1500.0,,test,1000.0,2.0,",",go,"[',']",0,,,,,
436,,html-keyboard-response,436,428257,0.0-3.2-22.2,,<div class = centerbox><div class = fixation>+</div></div>,,test_ITI,77.92200307244637,,test,77.92200307244637,2.0,,,,,"{'min': 0, 'max': 5, 'mean': 0.5}",,,,
437,,html-keyboard-response,437,428763,0.0-3.2-23.2,,<div class = centerbox><div class = fixation>+</div></div>,,test_fixation,500.0,,test,500.0,2.0,,,,,,,,,
438,,html-keyboard-response,438,430269,0.0-3.2-24.2,,<div class = bigbox><div class = centerbox><div class = gng_number><div class = cue-text><div id = stim2></div></div></div></div></div>,,test_trial,1500.0,,test,1000.0,2.0,,nogo,"[',']",1,,,,,
439,,html-keyboard-response,439,430327,0.0-3.2-25.2,,<div class = centerbox><div class = fixation>+</div></div>,,test_ITI,54.94635286122933,,test,54.94635286122933,2.0,,,,,"{'min': 0, 'max': 5, 'mean': 0.5}",,,,
440,,html-keyboard-response,440,430831,0.0-3.2-26.2,,<div class = centerbox><div class = fixation>+</div></div>,,test_fixation,500.0,,test,500.0,2.0,,,,,,,,,
441,,html-keyboard-response,441,432338,0.0-3.2-27.2,,<div class = bigbox><div class = centerbox><div class = gng_number><div class = cue-text><div  id = stim1></div></div></div></div></div>,,test_trial,1500.0,,test,1000.0,2.0,",",go,"[',']",0,,,,,
442,,html-keyboard-response,442,432777,0.0-3.2-28.2,,<div class = centerbox><div class = fixation>+</div></div>,,test_ITI,435.88599227031864,,test,435.88599227031864,2.0,,,,,"{'min': 0, 'max': 5, 'mean': 0.5}",,,,
443,,html-keyboard-response,443,433281,0.0-3.2-29.2,,<div class = centerbox><div class = fixation>+</div></div>,,test_fixation,500.0,,test,500.0,2.0,,,,,,,,,
444,,html-keyboard-response,444,434787,0.0-3.2-30.2,,<div class = bigbox><div class = centerbox><div class = gng_number><div class = cue-text><div  id = stim1></div></div></div></div></div>,,test_trial,1500.0,,test,1000.0,2.0,",",go,"[',']",0,,,,,
445,,html-keyboard-response,445,434913,0.0-3.2-31.2,,<div class = centerbox><div class = fixation>+</div></div>,,test_ITI,121.36990635580091,,test,121.36990635580091,2.0,,,,,"{'min': 0, 'max': 5, 'mean': 0.5}",,,,
446,,html-keyboard-response,446,435418,0.0-3.2-32.2,,<div class = centerbox><div class = fixation>+</div></div>,,test_fixation,500.0,,test,500.0,2.0,,,,,,,,,
447,,html-keyboard-response,447,436920,0.0-3.2-33.2,,<div class = bigbox><div class = centerbox><div class = gng_number><div class = cue-text><div  id = stim1></div></div></div></div></div>,,test_trial,1500.0,,test,1000.0,2.0,",",go,"[',']",0,,,,,
448,,html-keyboard-response,448,437339,0.0-3.2-34.2,,<div class = centerbox><div class = fixation>+</div></div>,,test_ITI,415.94909910024194,,test,415.94909910024194,2.0,,,,,"{'min': 0, 'max': 5, 'mean': 0.5}",,,,
449,,html-keyboard-response,449,437845,0.0-3.2-35.2,,<div class = centerbox><div class = fixation>+</div></div>,,test_fixation,500.0,,test,500.0,2.0,,,,,,,,,
450,,html-keyboard-response,450,439352,0.0-3.2-36.2,,<div class = bigbox><div class = centerbox><div class = gng_number><div class = cue-text><div id = stim2></div></div></div></div></div>,,test_trial,1500.0,,test,1000.0,2.0,,nogo,"[',']",1,,,,,
451,,html-keyboard-response,451,440516,0.0-3.2-37.2,,<div class = centerbox><div class = fixation>+</div></div>,,test_ITI,1159.4010239047461,,test,1159.4010239047461,2.0,,,,,"{'min': 0, 'max': 5, 'mean': 0.5}",,,,
452,,html-keyboard-response,452,441019,0.0-3.2-38.2,,<div class = centerbox><div class = fixation>+</div></div>,,test_fixation,500.0,,test,500.0,2.0,,,,,,,,,
453,,html-keyboard-response,453,442526,0.0-3.2-39.2,,<div class = bigbox><div class = centerbox><div class = gng_number><div class = cue-text><div  id = stim1></div></div></div></div></div>,,test_trial,1500.0,,test,1000.0,2.0,",",go,"[',']",0,,,,,
454,,html-keyboard-response,454,443133,0.0-3.2-40.2,,<div class = centerbox><div class = fixation>+</div></div>,,test_ITI,601.3593911202277,,test,601.3593911202277,2.0,,,,,"{'min': 0, 'max': 5, 'mean': 0.5}",,,,
455,,html-keyboard-response,455,443638,0.0-3.2-41.2,,<div class = centerbox><div class = fixation>+</div></div>,,test_fixation,500.0,,test,500.0,2.0,,,,,,,,,
456,,html-keyboard-response,456,445145,0.0-3.2-42.2,,<div class = bigbox><div class = centerbox><div class = gng_number><div class = cue-text><div id = stim2></div></div></div></div></div>,,test_trial,1500.0,,test,1000.0,2.0,,nogo,"[',']",1,,,,,
457,,html-keyboard-response,457,446239,0.0-3.2-43.2,,<div class = centerbox><div class = fixation>+</div></div>,,test_ITI,1088.5472409976483,,test,1088.5472409976483,2.0,,,,,"{'min': 0, 'max': 5, 'mean': 0.5}",,,,
458,,html-keyboard-response,458,446742,0.0-3.2-44.2,,<div class = centerbox><div class = fixation>+</div></div>,,test_fixation,500.0,,test,500.0,2.0,,,,,,,,,
459,,html-keyboard-response,459,448245,0.0-3.2-45.2,400.0,<div class = bigbox><div class = centerbox><div class = gng_number><div class = cue-text><div  id = stim1></div></div></div></div></div>,",",test_trial,1500.0,,test,1000.0,2.0,",",go,"[',']",1,,,,,
460,,html-keyboard-response,460,448375,0.0-3.2-46.2,,<div class = centerbox><div class = fixation>+</div></div>,,test_ITI,125.18340044111936,,test,125.18340044111936,2.0,,,,,"{'min': 0, 'max': 5, 'mean': 0.5}",,,,
461,,html-keyboard-response,461,448879,0.0-3.2-47.2,,<div class = centerbox><div class = fixation>+</div></div>,,test_fixation,500.0,,test,500.0,2.0,,,,,,,,,
462,,html-keyboard-response,462,450386,0.0-3.2-48.2,1042.0,<div class = bigbox><div class = centerbox><div class = gng_number><div class = cue-text><div  id = stim1></div></div></div></div></div>,",",test_trial,1500.0,,test,1000.0,2.0,",",go,"[',']",1,,,,,
463,,html-keyboard-response,463,450532,0.0-3.2-49.2,,<div class = centerbox><div class = fixation>+</div></div>,,test_ITI,140.19573578527766,,test,140.19573578527766,2.0,,,,,"{'min': 0, 'max': 5, 'mean': 0.5}",,,,
464,,html-keyboard-response,464,451035,0.0-3.2-50.2,,<div class = centerbox><div class = fixation>+</div></div>,,test_fixation,500.0,,test,500.0,2.0,,,,,,,,,
465,,html-keyboard-response,465,452541,0.0-3.2-51.2,,<div class = bigbox><div class = centerbox><div class = gng_number><div class = cue-text><div  id = stim1></div></div></div></div></div>,,test_trial,1500.0,,test,1000.0,2.0,",",go,"[',']",0,,,,,
466,,html-keyboard-response,466,452808,0.0-3.2-52.2,,<div class = centerbox><div class = fixation>+</div></div>,,test_ITI,260.976174431365,,test,260.976174431365,2.0,,,,,"{'min': 0, 'max': 5, 'mean': 0.5}",,,,
467,,html-keyboard-response,467,453312,0.0-3.2-53.2,,<div class = centerbox><div class = fixation>+</div></div>,,test_fixation,500.0,,test,500.0,2.0,,,,,,,,,
468,,html-keyboard-response,468,454815,0.0-3.2-54.2,,<div class = bigbox><div class = centerbox><div class = gng_number><div class = cue-text><div  id = stim1></div></div></div></div></div>,,test_trial,1500.0,,test,1000.0,2.0,",",go,"[',']",0,,,,,
469,,html-keyboard-response,469,455025,0.0-3.2-55.2,,<div class = centerbox><div class = fixation>+</div></div>,,test_ITI,203.51067307895363,,test,203.51067307895363,2.0,,,,,"{'min': 0, 'max': 5, 'mean': 0.5}",,,,
470,,html-keyboard-response,470,455527,0.0-3.2-56.2,,<div class = centerbox><div class = fixation>+</div></div>,,test_fixation,500.0,,test,500.0,2.0,,,,,,,,,
471,,html-keyboard-response,471,457033,0.0-3.2-57.2,,<div class = bigbox><div class = centerbox><div class = gng_number><div class = cue-text><div  id = stim1></div></div></div></div></div>,,test_trial,1500.0,,test,1000.0,2.0,",",go,"[',']",0,,,,,
472,,html-keyboard-response,472,457080,0.0-3.2-58.2,,<div class = centerbox><div class = fixation>+</div></div>,,test_ITI,41.327770592366754,,test,41.327770592366754,2.0,,,,,"{'min': 0, 'max': 5, 'mean': 0.5}",,,,
473,,html-keyboard-response,473,457584,0.0-3.2-59.2,,<div class = centerbox><div class = fixation>+</div></div>,,test_fixation,500.0,,test,500.0,2.0,,,,,,,,,
