,success,trial_type,trial_index,time_elapsed,internal_node_id,rt,stimulus,response,trial_id,trial_duration,view_history,exp_stage,block_num,stimulus_duration,choices,condition,probe,correct_response,delay,letter_case,correct_trial,ITIParams,current_question,current_key_answer,exp_id,attention_check_percent
0,True,fullscreen,0,2062,0.0-0.0,,,,,,,,,,,,,,,,,,,,,
1,,html-keyboard-response,1,2260,0.0-1.0-0.0,195.0,"<div class = centerbox><p class = center-block-text>
    
  <p class=""center-block-text"">
    Welcome! This experiment will take around 10 minutes.
  </p>
  <p class=""center-block-text"">
    To avoid technical issues, please keep the experiment tab (on Chrome or Firefox) active and in fullscreen mode for the whole duration of each task.
  </p>
  <p class=""center-block-text""> Press <i>enter</i> to begin.</p>

    </p></div>",enter,instruction_feedback,180000.0,,,,,,,,,,,,,,,,
2,,instructions,2,3482,0.0-1.0-1.0,1221.0,,,instructions,,"[{'page_index': 0, 'viewing_time': 1018}, {'page_index': 1, 'viewing_time': 202}]",,,,,,,,,,,,,,,
3,,html-keyboard-response,3,4012,0.0-2.0-0.0,527.0,"<div class = bigbox><div class = picture_box><p class = block-text>
    <div class = centerbox><p class = center-block-text>Press <i>enter</i> to begin practice.</p></div>
    </font></p></div></div>",enter,practice_feedback,60000.0,,practice,0.0,,,,,,,,,,,,,
4,,html-keyboard-response,4,4515,0.0-2.0-1.0,,<div class = centerbox><div class = fixation>+</div></div>,,practice_fixation,500.0,,practice,0.0,500.0,,,,,,,,,,,,
5,,html-keyboard-response,5,6021,0.0-2.0-2.0,451.0,<div class = bigbox><div class = centerbox><div class = gng_number><div class = cue-text><img class = center src='/static/experiments/n_back_rdoc/images/lowercase_G.png'></img></div></div></div></div>,",",practice_trial,1500.0,,practice,0.0,1000.0,"['.', ',']",N/A,g,",",1.0,lowercase,1,,,,,
6,,html-keyboard-response,6,6526,0.0-2.0-3.0,,<div class = fb_box><div class = center-text><font size =20>Correct!</font></div></div>,,practice_feedback,500.0,,practice,,500.0,,,,,,,,,,,,
7,,html-keyboard-response,7,6692,0.0-2.0-4.0,,<div class = centerbox><div class = fixation>+</div></div>,,practice_ITI,160.50820444010006,,practice,0.0,160.50820444010006,,,,,,,,"{'min': 0, 'max': 5, 'mean': 0.5}",,,,
8,,html-keyboard-response,8,7196,0.0-2.0-5.0,,<div class = centerbox><div class = fixation>+</div></div>,,practice_fixation,500.0,,practice,0.0,500.0,,,,,,,,,,,,
9,,html-keyboard-response,9,8704,0.0-2.0-6.0,625.0,<div class = bigbox><div class = centerbox><div class = gng_number><div class = cue-text><img class = center src='/static/experiments/n_back_rdoc/images/lowercase_D.png'></img></div></div></div></div>,",",practice_trial,1500.0,,practice,0.0,1000.0,"['.', ',']",mismatch,d,",",1.0,lowercase,1,,,,,
10,,html-keyboard-response,10,9207,0.0-2.0-7.0,,<div class = fb_box><div class = center-text><font size =20>Correct!</font></div></div>,,practice_feedback,500.0,,practice,,500.0,,,,,,,,,,,,
11,,html-keyboard-response,11,9474,0.0-2.0-8.0,,<div class = centerbox><div class = fixation>+</div></div>,,practice_ITI,261.7744382922539,,practice,0.0,261.7744382922539,,,,,,,,"{'min': 0, 'max': 5, 'mean': 0.5}",,,,
12,,html-keyboard-response,12,9977,0.0-2.0-9.0,,<div class = centerbox><div class = fixation>+</div></div>,,practice_fixation,500.0,,practice,0.0,500.0,,,,,,,,,,,,
13,,html-keyboard-response,13,11485,0.0-2.0-10.0,473.0,<div class = bigbox><div class = centerbox><div class = gng_number><div class = cue-text><img class = center src='/static/experiments/n_back_rdoc/images/uppercase_V.png'></img></div></div></div></div>,",",practice_trial,1500.0,,practice,0.0,1000.0,"['.', ',']",mismatch,V,",",1.0,uppercase,1,,,,,
14,,html-keyboard-response,14,11988,0.0-2.0-11.0,,<div class = fb_box><div class = center-text><font size =20>Correct!</font></div></div>,,practice_feedback,500.0,,practice,,500.0,,,,,,,,,,,,
15,,html-keyboard-response,15,12380,0.0-2.0-12.0,,<div class = centerbox><div class = fixation>+</div></div>,,practice_ITI,388.6037797769633,,practice,0.0,388.6037797769633,,,,,,,,"{'min': 0, 'max': 5, 'mean': 0.5}",,,,
16,,html-keyboard-response,16,12883,0.0-2.0-13.0,,<div class = centerbox><div class = fixation>+</div></div>,,practice_fixation,500.0,,practice,0.0,500.0,,,,,,,,,,,,
17,,html-keyboard-response,17,14386,0.0-2.0-14.0,528.0,<div class = bigbox><div class = centerbox><div class = gng_number><div class = cue-text><img class = center src='/static/experiments/n_back_rdoc/images/lowercase_D.png'></img></div></div></div></div>,",",practice_trial,1500.0,,practice,0.0,1000.0,"['.', ',']",mismatch,d,",",1.0,lowercase,1,,,,,
18,,html-keyboard-response,18,14892,0.0-2.0-15.0,,<div class = fb_box><div class = center-text><font size =20>Correct!</font></div></div>,,practice_feedback,500.0,,practice,,500.0,,,,,,,,,,,,
19,,html-keyboard-response,19,15188,0.0-2.0-16.0,,<div class = centerbox><div class = fixation>+</div></div>,,practice_ITI,292.8814855308165,,practice,0.0,292.8814855308165,,,,,,,,"{'min': 0, 'max': 5, 'mean': 0.5}",,,,
20,,html-keyboard-response,20,15692,0.0-2.0-17.0,,<div class = centerbox><div class = fixation>+</div></div>,,practice_fixation,500.0,,practice,0.0,500.0,,,,,,,,,,,,
21,,html-keyboard-response,21,17200,0.0-2.0-18.0,478.0,<div class = bigbox><div class = centerbox><div class = gng_number><div class = cue-text><img class = center src='/static/experiments/n_back_rdoc/images/lowercase_V.png'></img></div></div></div></div>,",",practice_trial,1500.0,,practice,0.0,1000.0,"['.', ',']",mismatch,v,",",1.0,lowercase,1,,,,,
22,,html-keyboard-response,22,17705,0.0-2.0-19.0,,<div class = fb_box><div class = center-text><font size =20>Correct!</font></div></div>,,practice_feedback,500.0,,practice,,500.0,,,,,,,,,,,,
23,,html-keyboard-response,23,18472,0.0-2.0-20.0,,<div class = centerbox><div class = fixation>+</div></div>,,practice_ITI,760.5697631317928,,practice,0.0,760.5697631317928,,,,,,,,"{'min': 0, 'max': 5, 'mean': 0.5}",,,,
24,,html-keyboard-response,24,18977,0.0-2.0-21.0,,<div class = centerbox><div class = fixation>+</div></div>,,practice_fixation,500.0,,practice,0.0,500.0,,,,,,,,,,,,
25,,html-keyboard-response,25,20485,0.0-2.0-22.0,582.0,<div class = bigbox><div class = centerbox><div class = gng_number><div class = cue-text><img class = center src='/static/experiments/n_back_rdoc/images/uppercase_V.png'></img></div></div></div></div>,.,practice_trial,1500.0,,practice,0.0,1000.0,"['.', ',']",match,V,.,1.0,uppercase,1,,,,,
26,,html-keyboard-response,26,20992,0.0-2.0-23.0,,<div class = fb_box><div class = center-text><font size =20>Correct!</font></div></div>,,practice_feedback,500.0,,practice,,500.0,,,,,,,,,,,,
27,,html-keyboard-response,27,21429,0.0-2.0-24.0,,<div class = centerbox><div class = fixation>+</div></div>,,practice_ITI,434.577988526223,,practice,0.0,434.577988526223,,,,,,,,"{'min': 0, 'max': 5, 'mean': 0.5}",,,,
28,,html-keyboard-response,28,23336,0.0-3.0-0.0,1904.0,"<div class = bigbox><div class = picture_box><p class = block-text>
    
        <div class=""centerbox"">
          <p class=""center-block-text"">We will now start practice for a delay of 2.</p>
          <p class=""block-text"">Keep your <b>middle finger</b> on the <b>period key (.)</b> and your <b>index finger</b> on the <b>comma key (,)</b></p>
          <p class=""block-text"">Please match the current letter to the letter that appeared <b>2</b> trials ago.</p>
          <p class=""block-text"">Capitalization does not matter, so ""T"" matches with ""t"".</p>
          <p class=""block-text"">Press <i>enter</i> to continue.</p>
        </div>
      
    </font></p></div></div>",enter,practice_feedback,60000.0,,practice,0.0,,,,,,,,,,,,,
29,,html-keyboard-response,29,23837,0.0-3.0-1.0,,<div class = centerbox><div class = fixation>+</div></div>,,practice_fixation,500.0,,practice,0.0,500.0,,,,,,,,,,,,
30,,html-keyboard-response,30,25345,0.0-3.0-2.0,296.0,<div class = bigbox><div class = centerbox><div class = gng_number><div class = cue-text><img class = center src='/static/experiments/n_back_rdoc/images/uppercase_D.png'></img></div></div></div></div>,",",practice_trial,1500.0,,practice,0.0,1000.0,"['.', ',']",N/A,D,",",2.0,uppercase,1,,,,,
31,,html-keyboard-response,31,25848,0.0-3.0-3.0,,<div class = fb_box><div class = center-text><font size =20>Correct!</font></div></div>,,practice_feedback,500.0,,practice,,500.0,,,,,,,,,,,,
32,,html-keyboard-response,32,25999,0.0-3.0-4.0,,<div class = centerbox><div class = fixation>+</div></div>,,practice_ITI,148.78885610153029,,practice,0.0,148.78885610153029,,,,,,,,"{'min': 0, 'max': 5, 'mean': 0.5}",,,,
33,,html-keyboard-response,33,26503,0.0-3.0-5.0,,<div class = centerbox><div class = fixation>+</div></div>,,practice_fixation,500.0,,practice,0.0,500.0,,,,,,,,,,,,
34,,html-keyboard-response,34,28011,0.0-3.0-6.0,361.0,<div class = bigbox><div class = centerbox><div class = gng_number><div class = cue-text><img class = center src='/static/experiments/n_back_rdoc/images/lowercase_V.png'></img></div></div></div></div>,",",practice_trial,1500.0,,practice,0.0,1000.0,"['.', ',']",N/A,v,",",2.0,lowercase,1,,,,,
35,,html-keyboard-response,35,28514,0.0-3.0-7.0,,<div class = fb_box><div class = center-text><font size =20>Correct!</font></div></div>,,practice_feedback,500.0,,practice,,500.0,,,,,,,,,,,,
36,,html-keyboard-response,36,28805,0.0-3.0-8.0,,<div class = centerbox><div class = fixation>+</div></div>,,practice_ITI,285.05864174135496,,practice,0.0,285.05864174135496,,,,,,,,"{'min': 0, 'max': 5, 'mean': 0.5}",,,,
37,,html-keyboard-response,37,29309,0.0-3.0-9.0,,<div class = centerbox><div class = fixation>+</div></div>,,practice_fixation,500.0,,practice,0.0,500.0,,,,,,,,,,,,
38,,html-keyboard-response,38,30817,0.0-3.0-10.0,542.0,<div class = bigbox><div class = centerbox><div class = gng_number><div class = cue-text><img class = center src='/static/experiments/n_back_rdoc/images/lowercase_T.png'></img></div></div></div></div>,",",practice_trial,1500.0,,practice,0.0,1000.0,"['.', ',']",mismatch,t,",",2.0,lowercase,1,,,,,
39,,html-keyboard-response,39,31320,0.0-3.0-11.0,,<div class = fb_box><div class = center-text><font size =20>Correct!</font></div></div>,,practice_feedback,500.0,,practice,,500.0,,,,,,,,,,,,
40,,html-keyboard-response,40,32764,0.0-3.0-12.0,,<div class = centerbox><div class = fixation>+</div></div>,,practice_ITI,1438.065293782163,,practice,0.0,1438.065293782163,,,,,,,,"{'min': 0, 'max': 5, 'mean': 0.5}",,,,
41,,html-keyboard-response,41,33272,0.0-3.0-13.0,,<div class = centerbox><div class = fixation>+</div></div>,,practice_fixation,500.0,,practice,0.0,500.0,,,,,,,,,,,,
42,,html-keyboard-response,42,34777,0.0-3.0-14.0,381.0,<div class = bigbox><div class = centerbox><div class = gng_number><div class = cue-text><img class = center src='/static/experiments/n_back_rdoc/images/uppercase_G.png'></img></div></div></div></div>,",",practice_trial,1500.0,,practice,0.0,1000.0,"['.', ',']",mismatch,G,",",2.0,uppercase,1,,,,,
43,,html-keyboard-response,43,35283,0.0-3.0-15.0,,<div class = fb_box><div class = center-text><font size =20>Correct!</font></div></div>,,practice_feedback,500.0,,practice,,500.0,,,,,,,,,,,,
44,,html-keyboard-response,44,35397,0.0-3.0-16.0,,<div class = centerbox><div class = fixation>+</div></div>,,practice_ITI,107.57269937456331,,practice,0.0,107.57269937456331,,,,,,,,"{'min': 0, 'max': 5, 'mean': 0.5}",,,,
45,,html-keyboard-response,45,35902,0.0-3.0-17.0,,<div class = centerbox><div class = fixation>+</div></div>,,practice_fixation,500.0,,practice,0.0,500.0,,,,,,,,,,,,
46,,html-keyboard-response,46,37409,0.0-3.0-18.0,517.0,<div class = bigbox><div class = centerbox><div class = gng_number><div class = cue-text><img class = center src='/static/experiments/n_back_rdoc/images/lowercase_D.png'></img></div></div></div></div>,",",practice_trial,1500.0,,practice,0.0,1000.0,"['.', ',']",mismatch,d,",",2.0,lowercase,1,,,,,
47,,html-keyboard-response,47,37913,0.0-3.0-19.0,,<div class = fb_box><div class = center-text><font size =20>Correct!</font></div></div>,,practice_feedback,500.0,,practice,,500.0,,,,,,,,,,,,
48,,html-keyboard-response,48,38487,0.0-3.0-20.0,,<div class = centerbox><div class = fixation>+</div></div>,,practice_ITI,567.0800810130381,,practice,0.0,567.0800810130381,,,,,,,,"{'min': 0, 'max': 5, 'mean': 0.5}",,,,
49,,html-keyboard-response,49,38988,0.0-3.0-21.0,,<div class = centerbox><div class = fixation>+</div></div>,,practice_fixation,500.0,,practice,0.0,500.0,,,,,,,,,,,,
50,,html-keyboard-response,50,40497,0.0-3.0-22.0,940.0,<div class = bigbox><div class = centerbox><div class = gng_number><div class = cue-text><img class = center src='/static/experiments/n_back_rdoc/images/uppercase_G.png'></img></div></div></div></div>,.,practice_trial,1500.0,,practice,0.0,1000.0,"['.', ',']",match,G,.,2.0,uppercase,1,,,,,
51,,html-keyboard-response,51,41001,0.0-3.0-23.0,,<div class = fb_box><div class = center-text><font size =20>Correct!</font></div></div>,,practice_feedback,500.0,,practice,,500.0,,,,,,,,,,,,
52,,html-keyboard-response,52,41250,0.0-3.0-24.0,,<div class = centerbox><div class = fixation>+</div></div>,,practice_ITI,242.3933696176408,,practice,0.0,242.3933696176408,,,,,,,,"{'min': 0, 'max': 5, 'mean': 0.5}",,,,
53,,html-keyboard-response,53,41754,0.0-3.0-25.0,,<div class = centerbox><div class = fixation>+</div></div>,,practice_fixation,500.0,,practice,0.0,500.0,,,,,,,,,,,,
54,,html-keyboard-response,54,43258,0.0-3.0-26.0,365.0,<div class = bigbox><div class = centerbox><div class = gng_number><div class = cue-text><img class = center src='/static/experiments/n_back_rdoc/images/uppercase_V.png'></img></div></div></div></div>,",",practice_trial,1500.0,,practice,0.0,1000.0,"['.', ',']",mismatch,V,",",2.0,uppercase,1,,,,,
55,,html-keyboard-response,55,43764,0.0-3.0-27.0,,<div class = fb_box><div class = center-text><font size =20>Correct!</font></div></div>,,practice_feedback,500.0,,practice,,500.0,,,,,,,,,,,,
56,,html-keyboard-response,56,44256,0.0-3.0-28.0,,<div class = centerbox><div class = fixation>+</div></div>,,practice_ITI,490.8344889216146,,practice,0.0,490.8344889216146,,,,,,,,"{'min': 0, 'max': 5, 'mean': 0.5}",,,,
57,,html-keyboard-response,57,47091,0.0-4.0-0.0,2831.0,"<div class = bigbox><div class = picture_box><p class = block-text>
    
      <div class=""centerbox"">
        <p class=""center-block-text"">We will now start the test portion.</p>
        <p class=""block-text"">Keep your <b>middle finger</b> on the <b>period key (.)</b> and your <b>index finger</b> on the <b>comma key (,)</b></p>
        <p class=""block-text""><b>Your delay for this block is 2</b>. Please match the current letter to the letter that appeared <b>2</b> trials ago.</p>
        <p class=""block-text"">Capitalization does not matter, so ""T"" matches with ""t"".</p>
        <p class=""block-text"">Press <i>enter</i> to continue.</p>
      </div>
    
    </font></p></div></div>",enter,test_feedback,60000.0,,test,0.0,,,,,,,,,,,,,
58,,html-keyboard-response,58,48083,0.0-4.0-1.0-0.0,990.0,,m,test_attention_check,,,test,0.0,,,,,,,,True,,<p class='block-text'>Press the M key</p> <div class=block-text>This screen will advance automatically in 1 minute.</div>,77.0,,
59,,html-keyboard-response,59,48586,0.0-4.0-2.0,,<div class = centerbox><div class = fixation>+</div></div>,,test_fixation,500.0,,test,0.0,500.0,,,,,,,,,,,,
60,,html-keyboard-response,60,50093,0.0-4.0-3.0,397.0,<div class = bigbox><div class = centerbox><div class = gng_number><div class = cue-text><img class = center src='/static/experiments/n_back_rdoc/images/uppercase_D.png'></img></div></div></div></div>,",",test_trial,1500.0,,test,0.0,1000.0,"['.', ',']",N/A,D,",",2.0,uppercase,1,,,,,
61,,html-keyboard-response,61,51167,0.0-4.0-4.0,,<div class = centerbox><div class = fixation>+</div></div>,,test_ITI,1069.842393668088,,test,0.0,1069.842393668088,,,,,,,,"{'min': 0, 'max': 5, 'mean': 0.5}",,,,
62,,html-keyboard-response,62,51671,0.0-4.0-5.0,,<div class = centerbox><div class = fixation>+</div></div>,,test_fixation,500.0,,test,0.0,500.0,,,,,,,,,,,,
63,,html-keyboard-response,63,53176,0.0-4.0-6.0,668.0,<div class = bigbox><div class = centerbox><div class = gng_number><div class = cue-text><img class = center src='/static/experiments/n_back_rdoc/images/uppercase_T.png'></img></div></div></div></div>,",",test_trial,1500.0,,test,0.0,1000.0,"['.', ',']",N/A,T,",",2.0,uppercase,1,,,,,
64,,html-keyboard-response,64,53827,0.0-4.0-7.0,,<div class = centerbox><div class = fixation>+</div></div>,,test_ITI,649.1098449002732,,test,0.0,649.1098449002732,,,,,,,,"{'min': 0, 'max': 5, 'mean': 0.5}",,,,
65,,html-keyboard-response,65,54334,0.0-4.0-8.0,,<div class = centerbox><div class = fixation>+</div></div>,,test_fixation,500.0,,test,0.0,500.0,,,,,,,,,,,,
66,,html-keyboard-response,66,55837,0.0-4.0-9.0,,<div class = bigbox><div class = centerbox><div class = gng_number><div class = cue-text><img class = center src='/static/experiments/n_back_rdoc/images/lowercase_T.png'></img></div></div></div></div>,,test_trial,1500.0,,test,0.0,1000.0,"['.', ',']",mismatch,t,",",2.0,lowercase,0,,,,,
67,,html-keyboard-response,67,56171,0.0-4.0-10.0,,<div class = centerbox><div class = fixation>+</div></div>,,test_ITI,331.4532598615515,,test,0.0,331.4532598615515,,,,,,,,"{'min': 0, 'max': 5, 'mean': 0.5}",,,,
68,,html-keyboard-response,68,56675,0.0-4.0-11.0,,<div class = centerbox><div class = fixation>+</div></div>,,test_fixation,500.0,,test,0.0,500.0,,,,,,,,,,,,
69,,html-keyboard-response,69,58181,0.0-4.0-12.0,,<div class = bigbox><div class = centerbox><div class = gng_number><div class = cue-text><img class = center src='/static/experiments/n_back_rdoc/images/lowercase_V.png'></img></div></div></div></div>,,test_trial,1500.0,,test,0.0,1000.0,"['.', ',']",mismatch,v,",",2.0,lowercase,0,,,,,
70,,html-keyboard-response,70,58239,0.0-4.0-13.0,,<div class = centerbox><div class = fixation>+</div></div>,,test_ITI,54.476990009929665,,test,0.0,54.476990009929665,,,,,,,,"{'min': 0, 'max': 5, 'mean': 0.5}",,,,
71,,html-keyboard-response,71,58741,0.0-4.0-14.0,,<div class = centerbox><div class = fixation>+</div></div>,,test_fixation,500.0,,test,0.0,500.0,,,,,,,,,,,,
72,,html-keyboard-response,72,60246,0.0-4.0-15.0,,<div class = bigbox><div class = centerbox><div class = gng_number><div class = cue-text><img class = center src='/static/experiments/n_back_rdoc/images/uppercase_T.png'></img></div></div></div></div>,,test_trial,1500.0,,test,0.0,1000.0,"['.', ',']",match,T,.,2.0,uppercase,0,,,,,
73,,html-keyboard-response,73,60494,0.0-4.0-16.0,,<div class = centerbox><div class = fixation>+</div></div>,,test_ITI,241.20642324128377,,test,0.0,241.20642324128377,,,,,,,,"{'min': 0, 'max': 5, 'mean': 0.5}",,,,
74,,html-keyboard-response,74,61000,0.0-4.0-17.0,,<div class = centerbox><div class = fixation>+</div></div>,,test_fixation,500.0,,test,0.0,500.0,,,,,,,,,,,,
75,,html-keyboard-response,75,62504,0.0-4.0-18.0,,<div class = bigbox><div class = centerbox><div class = gng_number><div class = cue-text><img class = center src='/static/experiments/n_back_rdoc/images/lowercase_T.png'></img></div></div></div></div>,,test_trial,1500.0,,test,0.0,1000.0,"['.', ',']",mismatch,t,",",2.0,lowercase,0,,,,,
76,,html-keyboard-response,76,63004,0.0-4.0-19.0,,<div class = centerbox><div class = fixation>+</div></div>,,test_ITI,499.77294113877105,,test,0.0,499.77294113877105,,,,,,,,"{'min': 0, 'max': 5, 'mean': 0.5}",,,,
77,,html-keyboard-response,77,63507,0.0-4.0-20.0,,<div class = centerbox><div class = fixation>+</div></div>,,test_fixation,500.0,,test,0.0,500.0,,,,,,,,,,,,
78,,html-keyboard-response,78,65015,0.0-4.0-21.0,,<div class = bigbox><div class = centerbox><div class = gng_number><div class = cue-text><img class = center src='/static/experiments/n_back_rdoc/images/uppercase_T.png'></img></div></div></div></div>,,test_trial,1500.0,,test,0.0,1000.0,"['.', ',']",match,T,.,2.0,uppercase,0,,,,,
79,,html-keyboard-response,79,65723,0.0-4.0-22.0,,<div class = centerbox><div class = fixation>+</div></div>,,test_ITI,702.5466566878439,,test,0.0,702.5466566878439,,,,,,,,"{'min': 0, 'max': 5, 'mean': 0.5}",,,,
80,,html-keyboard-response,80,66229,0.0-4.0-23.0,,<div class = centerbox><div class = fixation>+</div></div>,,test_fixation,500.0,,test,0.0,500.0,,,,,,,,,,,,
81,,html-keyboard-response,81,67737,0.0-4.0-24.0,,<div class = bigbox><div class = centerbox><div class = gng_number><div class = cue-text><img class = center src='/static/experiments/n_back_rdoc/images/uppercase_B.png'></img></div></div></div></div>,,test_trial,1500.0,,test,0.0,1000.0,"['.', ',']",mismatch,B,",",2.0,uppercase,0,,,,,
82,,html-keyboard-response,82,68877,0.0-4.0-25.0,,<div class = centerbox><div class = fixation>+</div></div>,,test_ITI,1133.6574836576797,,test,0.0,1133.6574836576797,,,,,,,,"{'min': 0, 'max': 5, 'mean': 0.5}",,,,
83,,html-keyboard-response,83,69382,0.0-4.0-26.0,,<div class = centerbox><div class = fixation>+</div></div>,,test_fixation,500.0,,test,0.0,500.0,,,,,,,,,,,,
84,,html-keyboard-response,84,70890,0.0-4.0-27.0,,<div class = bigbox><div class = centerbox><div class = gng_number><div class = cue-text><img class = center src='/static/experiments/n_back_rdoc/images/lowercase_D.png'></img></div></div></div></div>,,test_trial,1500.0,,test,0.0,1000.0,"['.', ',']",mismatch,d,",",2.0,lowercase,0,,,,,
85,,html-keyboard-response,85,71057,0.0-4.0-28.0,,<div class = centerbox><div class = fixation>+</div></div>,,test_ITI,165.62168393000258,,test,0.0,165.62168393000258,,,,,,,,"{'min': 0, 'max': 5, 'mean': 0.5}",,,,
86,,html-keyboard-response,86,71563,0.0-4.0-29.0,,<div class = centerbox><div class = fixation>+</div></div>,,test_fixation,500.0,,test,0.0,500.0,,,,,,,,,,,,
87,,html-keyboard-response,87,73072,0.0-4.0-30.0,,<div class = bigbox><div class = centerbox><div class = gng_number><div class = cue-text><img class = center src='/static/experiments/n_back_rdoc/images/lowercase_V.png'></img></div></div></div></div>,,test_trial,1500.0,,test,0.0,1000.0,"['.', ',']",mismatch,v,",",2.0,lowercase,0,,,,,
88,,html-keyboard-response,88,73516,0.0-4.0-31.0,,<div class = centerbox><div class = fixation>+</div></div>,,test_ITI,441.23483337367026,,test,0.0,441.23483337367026,,,,,,,,"{'min': 0, 'max': 5, 'mean': 0.5}",,,,
89,,html-keyboard-response,89,74020,0.0-4.0-32.0,,<div class = centerbox><div class = fixation>+</div></div>,,test_fixation,500.0,,test,0.0,500.0,,,,,,,,,,,,
90,,html-keyboard-response,90,75527,0.0-4.0-33.0,,<div class = bigbox><div class = centerbox><div class = gng_number><div class = cue-text><img class = center src='/static/experiments/n_back_rdoc/images/lowercase_D.png'></img></div></div></div></div>,,test_trial,1500.0,,test,0.0,1000.0,"['.', ',']",match,d,.,2.0,lowercase,0,,,,,
91,,html-keyboard-response,91,75701,0.0-4.0-34.0,,<div class = centerbox><div class = fixation>+</div></div>,,test_ITI,172.75461063463575,,test,0.0,172.75461063463575,,,,,,,,"{'min': 0, 'max': 5, 'mean': 0.5}",,,,
92,,html-keyboard-response,92,76207,0.0-4.0-35.0,,<div class = centerbox><div class = fixation>+</div></div>,,test_fixation,500.0,,test,0.0,500.0,,,,,,,,,,,,
93,,html-keyboard-response,93,77715,0.0-4.0-36.0,,<div class = bigbox><div class = centerbox><div class = gng_number><div class = cue-text><img class = center src='/static/experiments/n_back_rdoc/images/uppercase_T.png'></img></div></div></div></div>,,test_trial,1500.0,,test,0.0,1000.0,"['.', ',']",mismatch,T,",",2.0,uppercase,0,,,,,
94,,html-keyboard-response,94,77923,0.0-4.0-37.0,,<div class = centerbox><div class = fixation>+</div></div>,,test_ITI,201.66348433756096,,test,0.0,201.66348433756096,,,,,,,,"{'min': 0, 'max': 5, 'mean': 0.5}",,,,
95,,html-keyboard-response,95,78427,0.0-4.0-38.0,,<div class = centerbox><div class = fixation>+</div></div>,,test_fixation,500.0,,test,0.0,500.0,,,,,,,,,,,,
96,,html-keyboard-response,96,79936,0.0-4.0-39.0,,<div class = bigbox><div class = centerbox><div class = gng_number><div class = cue-text><img class = center src='/static/experiments/n_back_rdoc/images/lowercase_V.png'></img></div></div></div></div>,,test_trial,1500.0,,test,0.0,1000.0,"['.', ',']",mismatch,v,",",2.0,lowercase,0,,,,,
97,,html-keyboard-response,97,80101,0.0-4.0-40.0,,<div class = centerbox><div class = fixation>+</div></div>,,test_ITI,164.48356101908752,,test,0.0,164.48356101908752,,,,,,,,"{'min': 0, 'max': 5, 'mean': 0.5}",,,,
98,,html-keyboard-response,98,80607,0.0-4.0-41.0,,<div class = centerbox><div class = fixation>+</div></div>,,test_fixation,500.0,,test,0.0,500.0,,,,,,,,,,,,
99,,html-keyboard-response,99,82113,0.0-4.0-42.0,,<div class = bigbox><div class = centerbox><div class = gng_number><div class = cue-text><img class = center src='/static/experiments/n_back_rdoc/images/lowercase_D.png'></img></div></div></div></div>,,test_trial,1500.0,,test,0.0,1000.0,"['.', ',']",mismatch,d,",",2.0,lowercase,0,,,,,
100,,html-keyboard-response,100,84343,0.0-4.0-43.0,,<div class = centerbox><div class = fixation>+</div></div>,,test_ITI,2224.647203479221,,test,0.0,2224.647203479221,,,,,,,,"{'min': 0, 'max': 5, 'mean': 0.5}",,,,
101,,html-keyboard-response,101,89317,0.0-5.0-0.0,4969.0,"<div class = bigbox><div class = picture_box><p class = block-text>
    <div class = centerbox><p class = block-text>Please take this time to read your feedback! This screen will advance automatically in 1 minute.</p><p class=block-text>You have completed 1 out of 10 blocks of trials.</p>
        <p class=""block-text"">Your accuracy is low. Remember:</p>
        
  <ul style=""text-align:left;"">
    <li>Match the current letter to the letter that appeared some number of trials ago</li>
    <li>Match: middle finger</li>
    <li>Mismatch: index finger</li>
  </ul>

      
        <p class=""block-text"">You have not been responding to some trials. Please respond on every trial that requires a response.</p>
      <p class=block-text><b>Your delay for this next block is 1</b>.</p><p class=block-text>Press <i>enter</i> to continue.</p></div>
    </font></p></div></div>",enter,test_feedback,60000.0,,test,1.0,,,,,,,,,,,,,
102,,html-keyboard-response,102,90330,0.0-5.0-1.0-0.0,1012.0,,t,test_attention_check,,,test,1.0,,,,,,,,True,,<p class='block-text'>Press the T key</p> <div class=block-text>This screen will advance automatically in 1 minute.</div>,84.0,,
103,,html-keyboard-response,103,90832,0.0-5.0-2.0,,<div class = centerbox><div class = fixation>+</div></div>,,test_fixation,500.0,,test,1.0,500.0,,,,,,,,,,,,
104,,html-keyboard-response,104,92336,0.0-5.0-3.0,670.0,<div class = bigbox><div class = centerbox><div class = gng_number><div class = cue-text><img class = center src='/static/experiments/n_back_rdoc/images/uppercase_V.png'></img></div></div></div></div>,",",test_trial,1500.0,,test,1.0,1000.0,"['.', ',']",N/A,V,",",1.0,uppercase,1,,,,,
105,,html-keyboard-response,105,93041,0.0-5.0-4.0,,<div class = centerbox><div class = fixation>+</div></div>,,test_ITI,698.4675506885089,,test,1.0,698.4675506885089,,,,,,,,"{'min': 0, 'max': 5, 'mean': 0.5}",,,,
106,,html-keyboard-response,106,93544,0.0-5.0-5.0,,<div class = centerbox><div class = fixation>+</div></div>,,test_fixation,500.0,,test,1.0,500.0,,,,,,,,,,,,
107,,html-keyboard-response,107,95047,0.0-5.0-6.0,526.0,<div class = bigbox><div class = centerbox><div class = gng_number><div class = cue-text><img class = center src='/static/experiments/n_back_rdoc/images/uppercase_B.png'></img></div></div></div></div>,",",test_trial,1500.0,,test,1.0,1000.0,"['.', ',']",mismatch,B,",",1.0,uppercase,1,,,,,
108,,html-keyboard-response,108,95206,0.0-5.0-7.0,,<div class = centerbox><div class = fixation>+</div></div>,,test_ITI,152.39347379498602,,test,1.0,152.39347379498602,,,,,,,,"{'min': 0, 'max': 5, 'mean': 0.5}",,,,
109,,html-keyboard-response,109,95711,0.0-5.0-8.0,,<div class = centerbox><div class = fixation>+</div></div>,,test_fixation,500.0,,test,1.0,500.0,,,,,,,,,,,,
110,,html-keyboard-response,110,97219,0.0-5.0-9.0,,<div class = bigbox><div class = centerbox><div class = gng_number><div class = cue-text><img class = center src='/static/experiments/n_back_rdoc/images/uppercase_G.png'></img></div></div></div></div>,,test_trial,1500.0,,test,1.0,1000.0,"['.', ',']",mismatch,G,",",1.0,uppercase,0,,,,,
111,,html-keyboard-response,111,97635,0.0-5.0-10.0,,<div class = centerbox><div class = fixation>+</div></div>,,test_ITI,410.82126840880187,,test,1.0,410.82126840880187,,,,,,,,"{'min': 0, 'max': 5, 'mean': 0.5}",,,,
112,,html-keyboard-response,112,98139,0.0-5.0-11.0,,<div class = centerbox><div class = fixation>+</div></div>,,test_fixation,500.0,,test,1.0,500.0,,,,,,,,,,,,
113,,html-keyboard-response,113,99645,0.0-5.0-12.0,,<div class = bigbox><div class = centerbox><div class = gng_number><div class = cue-text><img class = center src='/static/experiments/n_back_rdoc/images/uppercase_D.png'></img></div></div></div></div>,,test_trial,1500.0,,test,1.0,1000.0,"['.', ',']",mismatch,D,",",1.0,uppercase,0,,,,,
114,,html-keyboard-response,114,100008,0.0-5.0-13.0,,<div class = centerbox><div class = fixation>+</div></div>,,test_ITI,357.74535103181057,,test,1.0,357.74535103181057,,,,,,,,"{'min': 0, 'max': 5, 'mean': 0.5}",,,,
115,,html-keyboard-response,115,100514,0.0-5.0-14.0,,<div class = centerbox><div class = fixation>+</div></div>,,test_fixation,500.0,,test,1.0,500.0,,,,,,,,,,,,
116,,html-keyboard-response,116,102022,0.0-5.0-15.0,,<div class = bigbox><div class = centerbox><div class = gng_number><div class = cue-text><img class = center src='/static/experiments/n_back_rdoc/images/lowercase_D.png'></img></div></div></div></div>,,test_trial,1500.0,,test,1.0,1000.0,"['.', ',']",match,d,.,1.0,lowercase,0,,,,,
117,,html-keyboard-response,117,102142,0.0-5.0-16.0,,<div class = centerbox><div class = fixation>+</div></div>,,test_ITI,116.3288515450482,,test,1.0,116.3288515450482,,,,,,,,"{'min': 0, 'max': 5, 'mean': 0.5}",,,,
118,,html-keyboard-response,118,102647,0.0-5.0-17.0,,<div class = centerbox><div class = fixation>+</div></div>,,test_fixation,500.0,,test,1.0,500.0,,,,,,,,,,,,
119,,html-keyboard-response,119,104156,0.0-5.0-18.0,,<div class = bigbox><div class = centerbox><div class = gng_number><div class = cue-text><img class = center src='/static/experiments/n_back_rdoc/images/uppercase_D.png'></img></div></div></div></div>,,test_trial,1500.0,,test,1.0,1000.0,"['.', ',']",match,D,.,1.0,uppercase,0,,,,,
120,,html-keyboard-response,120,104872,0.0-5.0-19.0,,<div class = centerbox><div class = fixation>+</div></div>,,test_ITI,710.4837004351108,,test,1.0,710.4837004351108,,,,,,,,"{'min': 0, 'max': 5, 'mean': 0.5}",,,,
121,,html-keyboard-response,121,105375,0.0-5.0-20.0,,<div class = centerbox><div class = fixation>+</div></div>,,test_fixation,500.0,,test,1.0,500.0,,,,,,,,,,,,
122,,html-keyboard-response,122,106880,0.0-5.0-21.0,,<div class = bigbox><div class = centerbox><div class = gng_number><div class = cue-text><img class = center src='/static/experiments/n_back_rdoc/images/uppercase_G.png'></img></div></div></div></div>,,test_trial,1500.0,,test,1.0,1000.0,"['.', ',']",mismatch,G,",",1.0,uppercase,0,,,,,
123,,html-keyboard-response,123,107151,0.0-5.0-22.0,,<div class = centerbox><div class = fixation>+</div></div>,,test_ITI,267.84030919782225,,test,1.0,267.84030919782225,,,,,,,,"{'min': 0, 'max': 5, 'mean': 0.5}",,,,
124,,html-keyboard-response,124,107654,0.0-5.0-23.0,,<div class = centerbox><div class = fixation>+</div></div>,,test_fixation,500.0,,test,1.0,500.0,,,,,,,,,,,,
125,,html-keyboard-response,125,109162,0.0-5.0-24.0,,<div class = bigbox><div class = centerbox><div class = gng_number><div class = cue-text><img class = center src='/static/experiments/n_back_rdoc/images/uppercase_B.png'></img></div></div></div></div>,,test_trial,1500.0,,test,1.0,1000.0,"['.', ',']",mismatch,B,",",1.0,uppercase,0,,,,,
126,,html-keyboard-response,126,109486,0.0-5.0-25.0,,<div class = centerbox><div class = fixation>+</div></div>,,test_ITI,322.5213829976033,,test,1.0,322.5213829976033,,,,,,,,"{'min': 0, 'max': 5, 'mean': 0.5}",,,,
127,,html-keyboard-response,127,109991,0.0-5.0-26.0,,<div class = centerbox><div class = fixation>+</div></div>,,test_fixation,500.0,,test,1.0,500.0,,,,,,,,,,,,
128,,html-keyboard-response,128,111498,0.0-5.0-27.0,,<div class = bigbox><div class = centerbox><div class = gng_number><div class = cue-text><img class = center src='/static/experiments/n_back_rdoc/images/lowercase_B.png'></img></div></div></div></div>,,test_trial,1500.0,,test,1.0,1000.0,"['.', ',']",match,b,.,1.0,lowercase,0,,,,,
129,,html-keyboard-response,129,112372,0.0-5.0-28.0,,<div class = centerbox><div class = fixation>+</div></div>,,test_ITI,867.5367934109554,,test,1.0,867.5367934109554,,,,,,,,"{'min': 0, 'max': 5, 'mean': 0.5}",,,,
130,,html-keyboard-response,130,112875,0.0-5.0-29.0,,<div class = centerbox><div class = fixation>+</div></div>,,test_fixation,500.0,,test,1.0,500.0,,,,,,,,,,,,
131,,html-keyboard-response,131,114380,0.0-5.0-30.0,,<div class = bigbox><div class = centerbox><div class = gng_number><div class = cue-text><img class = center src='/static/experiments/n_back_rdoc/images/lowercase_D.png'></img></div></div></div></div>,,test_trial,1500.0,,test,1.0,1000.0,"['.', ',']",mismatch,d,",",1.0,lowercase,0,,,,,
132,,html-keyboard-response,132,114652,0.0-5.0-31.0,,<div class = centerbox><div class = fixation>+</div></div>,,test_ITI,270.33799329929593,,test,1.0,270.33799329929593,,,,,,,,"{'min': 0, 'max': 5, 'mean': 0.5}",,,,
133,,html-keyboard-response,133,115155,0.0-5.0-32.0,,<div class = centerbox><div class = fixation>+</div></div>,,test_fixation,500.0,,test,1.0,500.0,,,,,,,,,,,,
134,,html-keyboard-response,134,116663,0.0-5.0-33.0,,<div class = bigbox><div class = centerbox><div class = gng_number><div class = cue-text><img class = center src='/static/experiments/n_back_rdoc/images/uppercase_G.png'></img></div></div></div></div>,,test_trial,1500.0,,test,1.0,1000.0,"['.', ',']",mismatch,G,",",1.0,uppercase,0,,,,,
135,,html-keyboard-response,135,117012,0.0-5.0-34.0,,<div class = centerbox><div class = fixation>+</div></div>,,test_ITI,343.9624387129652,,test,1.0,343.9624387129652,,,,,,,,"{'min': 0, 'max': 5, 'mean': 0.5}",,,,
136,,html-keyboard-response,136,117515,0.0-5.0-35.0,,<div class = centerbox><div class = fixation>+</div></div>,,test_fixation,500.0,,test,1.0,500.0,,,,,,,,,,,,
137,,html-keyboard-response,137,119024,0.0-5.0-36.0,,<div class = bigbox><div class = centerbox><div class = gng_number><div class = cue-text><img class = center src='/static/experiments/n_back_rdoc/images/uppercase_B.png'></img></div></div></div></div>,,test_trial,1500.0,,test,1.0,1000.0,"['.', ',']",mismatch,B,",",1.0,uppercase,0,,,,,
138,,html-keyboard-response,138,119141,0.0-5.0-37.0,,<div class = centerbox><div class = fixation>+</div></div>,,test_ITI,114.20941124882661,,test,1.0,114.20941124882661,,,,,,,,"{'min': 0, 'max': 5, 'mean': 0.5}",,,,
139,,html-keyboard-response,139,119645,0.0-5.0-38.0,,<div class = centerbox><div class = fixation>+</div></div>,,test_fixation,500.0,,test,1.0,500.0,,,,,,,,,,,,
140,,html-keyboard-response,140,121152,0.0-5.0-39.0,,<div class = bigbox><div class = centerbox><div class = gng_number><div class = cue-text><img class = center src='/static/experiments/n_back_rdoc/images/lowercase_D.png'></img></div></div></div></div>,,test_trial,1500.0,,test,1.0,1000.0,"['.', ',']",mismatch,d,",",1.0,lowercase,0,,,,,
141,,html-keyboard-response,141,123150,0.0-5.0-40.0,,<div class = centerbox><div class = fixation>+</div></div>,,test_ITI,1994.10040684237,,test,1.0,1994.10040684237,,,,,,,,"{'min': 0, 'max': 5, 'mean': 0.5}",,,,
142,,html-keyboard-response,142,126787,0.0-6.0-0.0,3633.0,"<div class = bigbox><div class = picture_box><p class = block-text>
    <div class = centerbox><p class = block-text>Please take this time to read your feedback! This screen will advance automatically in 1 minute.</p><p class=block-text>You have completed 2 out of 10 blocks of trials.</p>
        <p class=""block-text"">Your accuracy is low. Remember:</p>
        
  <ul style=""text-align:left;"">
    <li>Match the current letter to the letter that appeared some number of trials ago</li>
    <li>Match: middle finger</li>
    <li>Mismatch: index finger</li>
  </ul>

      
        <p class=""block-text"">You have not been responding to some trials. Please respond on every trial that requires a response.</p>
      <p class=block-text><b>Your delay for this next block is 2</b>.</p><p class=block-text>Press <i>enter</i> to continue.</p></div>
    </font></p></div></div>",enter,test_feedback,60000.0,,test,2.0,,,,,,,,,,,,,
143,,html-keyboard-response,143,128003,0.0-6.0-1.0-0.0,1215.0,,s,test_attention_check,,,test,2.0,,,,,,,,True,,<p class='block-text'>Press the S key</p> <div class=block-text>This screen will advance automatically in 1 minute.</div>,83.0,,
144,,html-keyboard-response,144,128505,0.0-6.0-2.0,,<div class = centerbox><div class = fixation>+</div></div>,,test_fixation,500.0,,test,2.0,500.0,,,,,,,,,,,,
145,,html-keyboard-response,145,130011,0.0-6.0-3.0,536.0,<div class = bigbox><div class = centerbox><div class = gng_number><div class = cue-text><img class = center src='/static/experiments/n_back_rdoc/images/uppercase_B.png'></img></div></div></div></div>,",",test_trial,1500.0,,test,2.0,1000.0,"['.', ',']",N/A,B,",",2.0,uppercase,1,,,,,
146,,html-keyboard-response,146,130950,0.0-6.0-4.0,,<div class = centerbox><div class = fixation>+</div></div>,,test_ITI,932.230729750481,,test,2.0,932.230729750481,,,,,,,,"{'min': 0, 'max': 5, 'mean': 0.5}",,,,
147,,html-keyboard-response,147,131454,0.0-6.0-5.0,,<div class = centerbox><div class = fixation>+</div></div>,,test_fixation,500.0,,test,2.0,500.0,,,,,,,,,,,,
148,,html-keyboard-response,148,132957,0.0-6.0-6.0,,<div class = bigbox><div class = centerbox><div class = gng_number><div class = cue-text><img class = center src='/static/experiments/n_back_rdoc/images/uppercase_T.png'></img></div></div></div></div>,,test_trial,1500.0,,test,2.0,1000.0,"['.', ',']",N/A,T,",",2.0,uppercase,0,,,,,
149,,html-keyboard-response,149,135203,0.0-6.0-7.0,,<div class = centerbox><div class = fixation>+</div></div>,,test_ITI,2239.9593690484153,,test,2.0,2239.9593690484153,,,,,,,,"{'min': 0, 'max': 5, 'mean': 0.5}",,,,
150,,html-keyboard-response,150,135707,0.0-6.0-8.0,,<div class = centerbox><div class = fixation>+</div></div>,,test_fixation,500.0,,test,2.0,500.0,,,,,,,,,,,,
151,,html-keyboard-response,151,137214,0.0-6.0-9.0,,<div class = bigbox><div class = centerbox><div class = gng_number><div class = cue-text><img class = center src='/static/experiments/n_back_rdoc/images/uppercase_T.png'></img></div></div></div></div>,,test_trial,1500.0,,test,2.0,1000.0,"['.', ',']",mismatch,T,",",2.0,uppercase,0,,,,,
152,,html-keyboard-response,152,137384,0.0-6.0-10.0,,<div class = centerbox><div class = fixation>+</div></div>,,test_ITI,167.65860874323934,,test,2.0,167.65860874323934,,,,,,,,"{'min': 0, 'max': 5, 'mean': 0.5}",,,,
153,,html-keyboard-response,153,137887,0.0-6.0-11.0,,<div class = centerbox><div class = fixation>+</div></div>,,test_fixation,500.0,,test,2.0,500.0,,,,,,,,,,,,
154,,html-keyboard-response,154,139395,0.0-6.0-12.0,,<div class = bigbox><div class = centerbox><div class = gng_number><div class = cue-text><img class = center src='/static/experiments/n_back_rdoc/images/uppercase_B.png'></img></div></div></div></div>,,test_trial,1500.0,,test,2.0,1000.0,"['.', ',']",mismatch,B,",",2.0,uppercase,0,,,,,
155,,html-keyboard-response,155,141528,0.0-6.0-13.0,,<div class = centerbox><div class = fixation>+</div></div>,,test_ITI,2127.6535689650327,,test,2.0,2127.6535689650327,,,,,,,,"{'min': 0, 'max': 5, 'mean': 0.5}",,,,
156,,html-keyboard-response,156,142031,0.0-6.0-14.0,,<div class = centerbox><div class = fixation>+</div></div>,,test_fixation,500.0,,test,2.0,500.0,,,,,,,,,,,,
157,,html-keyboard-response,157,143539,0.0-6.0-15.0,,<div class = bigbox><div class = centerbox><div class = gng_number><div class = cue-text><img class = center src='/static/experiments/n_back_rdoc/images/uppercase_G.png'></img></div></div></div></div>,,test_trial,1500.0,,test,2.0,1000.0,"['.', ',']",mismatch,G,",",2.0,uppercase,0,,,,,
158,,html-keyboard-response,158,144101,0.0-6.0-16.0,,<div class = centerbox><div class = fixation>+</div></div>,,test_ITI,560.36812333742,,test,2.0,560.36812333742,,,,,,,,"{'min': 0, 'max': 5, 'mean': 0.5}",,,,
159,,html-keyboard-response,159,144608,0.0-6.0-17.0,,<div class = centerbox><div class = fixation>+</div></div>,,test_fixation,500.0,,test,2.0,500.0,,,,,,,,,,,,
160,,html-keyboard-response,160,146116,0.0-6.0-18.0,,<div class = bigbox><div class = centerbox><div class = gng_number><div class = cue-text><img class = center src='/static/experiments/n_back_rdoc/images/uppercase_G.png'></img></div></div></div></div>,,test_trial,1500.0,,test,2.0,1000.0,"['.', ',']",mismatch,G,",",2.0,uppercase,0,,,,,
161,,html-keyboard-response,161,147188,0.0-6.0-19.0,,<div class = centerbox><div class = fixation>+</div></div>,,test_ITI,1066.4290770311948,,test,2.0,1066.4290770311948,,,,,,,,"{'min': 0, 'max': 5, 'mean': 0.5}",,,,
162,,html-keyboard-response,162,147695,0.0-6.0-20.0,,<div class = centerbox><div class = fixation>+</div></div>,,test_fixation,500.0,,test,2.0,500.0,,,,,,,,,,,,
163,,html-keyboard-response,163,149204,0.0-6.0-21.0,,<div class = bigbox><div class = centerbox><div class = gng_number><div class = cue-text><img class = center src='/static/experiments/n_back_rdoc/images/lowercase_D.png'></img></div></div></div></div>,,test_trial,1500.0,,test,2.0,1000.0,"['.', ',']",mismatch,d,",",2.0,lowercase,0,,,,,
164,,html-keyboard-response,164,149431,0.0-6.0-22.0,,<div class = centerbox><div class = fixation>+</div></div>,,test_ITI,224.50730006023383,,test,2.0,224.50730006023383,,,,,,,,"{'min': 0, 'max': 5, 'mean': 0.5}",,,,
165,,html-keyboard-response,165,149936,0.0-6.0-23.0,,<div class = centerbox><div class = fixation>+</div></div>,,test_fixation,500.0,,test,2.0,500.0,,,,,,,,,,,,
166,,html-keyboard-response,166,151442,0.0-6.0-24.0,,<div class = bigbox><div class = centerbox><div class = gng_number><div class = cue-text><img class = center src='/static/experiments/n_back_rdoc/images/uppercase_V.png'></img></div></div></div></div>,,test_trial,1500.0,,test,2.0,1000.0,"['.', ',']",mismatch,V,",",2.0,uppercase,0,,,,,
167,,html-keyboard-response,167,151492,0.0-6.0-25.0,,<div class = centerbox><div class = fixation>+</div></div>,,test_ITI,45.37861044907612,,test,2.0,45.37861044907612,,,,,,,,"{'min': 0, 'max': 5, 'mean': 0.5}",,,,
168,,html-keyboard-response,168,151996,0.0-6.0-26.0,,<div class = centerbox><div class = fixation>+</div></div>,,test_fixation,500.0,,test,2.0,500.0,,,,,,,,,,,,
169,,html-keyboard-response,169,153504,0.0-6.0-27.0,,<div class = bigbox><div class = centerbox><div class = gng_number><div class = cue-text><img class = center src='/static/experiments/n_back_rdoc/images/uppercase_T.png'></img></div></div></div></div>,,test_trial,1500.0,,test,2.0,1000.0,"['.', ',']",mismatch,T,",",2.0,uppercase,0,,,,,
170,,html-keyboard-response,170,155661,0.0-6.0-28.0,,<div class = centerbox><div class = fixation>+</div></div>,,test_ITI,2151.103973456692,,test,2.0,2151.103973456692,,,,,,,,"{'min': 0, 'max': 5, 'mean': 0.5}",,,,
171,,html-keyboard-response,171,156164,0.0-6.0-29.0,,<div class = centerbox><div class = fixation>+</div></div>,,test_fixation,500.0,,test,2.0,500.0,,,,,,,,,,,,
172,,html-keyboard-response,172,157673,0.0-6.0-30.0,,<div class = bigbox><div class = centerbox><div class = gng_number><div class = cue-text><img class = center src='/static/experiments/n_back_rdoc/images/uppercase_G.png'></img></div></div></div></div>,,test_trial,1500.0,,test,2.0,1000.0,"['.', ',']",mismatch,G,",",2.0,uppercase,0,,,,,
173,,html-keyboard-response,173,158053,0.0-6.0-31.0,,<div class = centerbox><div class = fixation>+</div></div>,,test_ITI,376.4384429727389,,test,2.0,376.4384429727389,,,,,,,,"{'min': 0, 'max': 5, 'mean': 0.5}",,,,
174,,html-keyboard-response,174,158558,0.0-6.0-32.0,,<div class = centerbox><div class = fixation>+</div></div>,,test_fixation,500.0,,test,2.0,500.0,,,,,,,,,,,,
175,,html-keyboard-response,175,160066,0.0-6.0-33.0,,<div class = bigbox><div class = centerbox><div class = gng_number><div class = cue-text><img class = center src='/static/experiments/n_back_rdoc/images/uppercase_D.png'></img></div></div></div></div>,,test_trial,1500.0,,test,2.0,1000.0,"['.', ',']",mismatch,D,",",2.0,uppercase,0,,,,,
176,,html-keyboard-response,176,160494,0.0-6.0-34.0,,<div class = centerbox><div class = fixation>+</div></div>,,test_ITI,421.94100647232636,,test,2.0,421.94100647232636,,,,,,,,"{'min': 0, 'max': 5, 'mean': 0.5}",,,,
177,,html-keyboard-response,177,160998,0.0-6.0-35.0,,<div class = centerbox><div class = fixation>+</div></div>,,test_fixation,500.0,,test,2.0,500.0,,,,,,,,,,,,
178,,html-keyboard-response,178,162505,0.0-6.0-36.0,,<div class = bigbox><div class = centerbox><div class = gng_number><div class = cue-text><img class = center src='/static/experiments/n_back_rdoc/images/lowercase_G.png'></img></div></div></div></div>,,test_trial,1500.0,,test,2.0,1000.0,"['.', ',']",match,g,.,2.0,lowercase,0,,,,,
179,,html-keyboard-response,179,162543,0.0-6.0-37.0,,<div class = centerbox><div class = fixation>+</div></div>,,test_ITI,35.66145521523777,,test,2.0,35.66145521523777,,,,,,,,"{'min': 0, 'max': 5, 'mean': 0.5}",,,,
180,,html-keyboard-response,180,163046,0.0-6.0-38.0,,<div class = centerbox><div class = fixation>+</div></div>,,test_fixation,500.0,,test,2.0,500.0,,,,,,,,,,,,
181,,html-keyboard-response,181,164555,0.0-6.0-39.0,,<div class = bigbox><div class = centerbox><div class = gng_number><div class = cue-text><img class = center src='/static/experiments/n_back_rdoc/images/lowercase_V.png'></img></div></div></div></div>,,test_trial,1500.0,,test,2.0,1000.0,"['.', ',']",mismatch,v,",",2.0,lowercase,0,,,,,
182,,html-keyboard-response,182,164595,0.0-6.0-40.0,,<div class = centerbox><div class = fixation>+</div></div>,,test_ITI,38.401039233588236,,test,2.0,38.401039233588236,,,,,,,,"{'min': 0, 'max': 5, 'mean': 0.5}",,,,
183,,html-keyboard-response,183,165101,0.0-6.0-41.0,,<div class = centerbox><div class = fixation>+</div></div>,,test_fixation,500.0,,test,2.0,500.0,,,,,,,,,,,,
184,,html-keyboard-response,184,166610,0.0-6.0-42.0,,<div class = bigbox><div class = centerbox><div class = gng_number><div class = cue-text><img class = center src='/static/experiments/n_back_rdoc/images/uppercase_G.png'></img></div></div></div></div>,,test_trial,1500.0,,test,2.0,1000.0,"['.', ',']",match,G,.,2.0,uppercase,0,,,,,
185,,html-keyboard-response,185,167357,0.0-6.0-43.0,,<div class = centerbox><div class = fixation>+</div></div>,,test_ITI,741.996611945933,,test,2.0,741.996611945933,,,,,,,,"{'min': 0, 'max': 5, 'mean': 0.5}",,,,
186,,html-keyboard-response,186,169117,0.0-7.0-0.0,1757.0,"<div class = bigbox><div class = picture_box><p class = block-text>
    <div class = centerbox><p class = block-text>Please take this time to read your feedback! This screen will advance automatically in 1 minute.</p><p class=block-text>You have completed 3 out of 10 blocks of trials.</p>
        <p class=""block-text"">Your accuracy is low. Remember:</p>
        
  <ul style=""text-align:left;"">
    <li>Match the current letter to the letter that appeared some number of trials ago</li>
    <li>Match: middle finger</li>
    <li>Mismatch: index finger</li>
  </ul>

      
        <p class=""block-text"">You have not been responding to some trials. Please respond on every trial that requires a response.</p>
      <p class=block-text><b>Your delay for this next block is 1</b>.</p><p class=block-text>Press <i>enter</i> to continue.</p></div>
    </font></p></div></div>",enter,test_feedback,60000.0,,test,3.0,,,,,,,,,,,,,
187,,html-keyboard-response,187,170170,0.0-7.0-1.0-0.0,1053.0,,n,test_attention_check,,,test,3.0,,,,,,,,False,,<p class='block-text'>Press the key for the last letter of the English alphabet.</p> <div class=block-text>This screen will advance automatically in 1 minute.</div>,90.0,,
188,,html-keyboard-response,188,170674,0.0-7.0-2.0,,<div class = centerbox><div class = fixation>+</div></div>,,test_fixation,500.0,,test,3.0,500.0,,,,,,,,,,,,
189,,html-keyboard-response,189,172178,0.0-7.0-3.0,,<div class = bigbox><div class = centerbox><div class = gng_number><div class = cue-text><img class = center src='/static/experiments/n_back_rdoc/images/lowercase_V.png'></img></div></div></div></div>,,test_trial,1500.0,,test,3.0,1000.0,"['.', ',']",N/A,v,",",1.0,lowercase,0,,,,,
190,,html-keyboard-response,190,172424,0.0-7.0-4.0,,<div class = centerbox><div class = fixation>+</div></div>,,test_ITI,240.16358408541095,,test,3.0,240.16358408541095,,,,,,,,"{'min': 0, 'max': 5, 'mean': 0.5}",,,,
191,,html-keyboard-response,191,172929,0.0-7.0-5.0,,<div class = centerbox><div class = fixation>+</div></div>,,test_fixation,500.0,,test,3.0,500.0,,,,,,,,,,,,
192,,html-keyboard-response,192,174437,0.0-7.0-6.0,,<div class = bigbox><div class = centerbox><div class = gng_number><div class = cue-text><img class = center src='/static/experiments/n_back_rdoc/images/uppercase_V.png'></img></div></div></div></div>,,test_trial,1500.0,,test,3.0,1000.0,"['.', ',']",match,V,.,1.0,uppercase,0,,,,,
193,,html-keyboard-response,193,175359,0.0-7.0-7.0,,<div class = centerbox><div class = fixation>+</div></div>,,test_ITI,915.1640936428596,,test,3.0,915.1640936428596,,,,,,,,"{'min': 0, 'max': 5, 'mean': 0.5}",,,,
194,,html-keyboard-response,194,175863,0.0-7.0-8.0,,<div class = centerbox><div class = fixation>+</div></div>,,test_fixation,500.0,,test,3.0,500.0,,,,,,,,,,,,
195,,html-keyboard-response,195,177367,0.0-7.0-9.0,,<div class = bigbox><div class = centerbox><div class = gng_number><div class = cue-text><img class = center src='/static/experiments/n_back_rdoc/images/lowercase_G.png'></img></div></div></div></div>,,test_trial,1500.0,,test,3.0,1000.0,"['.', ',']",mismatch,g,",",1.0,lowercase,0,,,,,
196,,html-keyboard-response,196,177592,0.0-7.0-10.0,,<div class = centerbox><div class = fixation>+</div></div>,,test_ITI,221.93625060646093,,test,3.0,221.93625060646093,,,,,,,,"{'min': 0, 'max': 5, 'mean': 0.5}",,,,
197,,html-keyboard-response,197,178098,0.0-7.0-11.0,,<div class = centerbox><div class = fixation>+</div></div>,,test_fixation,500.0,,test,3.0,500.0,,,,,,,,,,,,
198,,html-keyboard-response,198,179603,0.0-7.0-12.0,,<div class = bigbox><div class = centerbox><div class = gng_number><div class = cue-text><img class = center src='/static/experiments/n_back_rdoc/images/uppercase_B.png'></img></div></div></div></div>,,test_trial,1500.0,,test,3.0,1000.0,"['.', ',']",mismatch,B,",",1.0,uppercase,0,,,,,
199,,html-keyboard-response,199,179866,0.0-7.0-13.0,,<div class = centerbox><div class = fixation>+</div></div>,,test_ITI,258.4430086189211,,test,3.0,258.4430086189211,,,,,,,,"{'min': 0, 'max': 5, 'mean': 0.5}",,,,
200,,html-keyboard-response,200,180371,0.0-7.0-14.0,,<div class = centerbox><div class = fixation>+</div></div>,,test_fixation,500.0,,test,3.0,500.0,,,,,,,,,,,,
201,,html-keyboard-response,201,181880,0.0-7.0-15.0,,<div class = bigbox><div class = centerbox><div class = gng_number><div class = cue-text><img class = center src='/static/experiments/n_back_rdoc/images/uppercase_V.png'></img></div></div></div></div>,,test_trial,1500.0,,test,3.0,1000.0,"['.', ',']",mismatch,V,",",1.0,uppercase,0,,,,,
202,,html-keyboard-response,202,181904,0.0-7.0-16.0,,<div class = centerbox><div class = fixation>+</div></div>,,test_ITI,22.907382832016374,,test,3.0,22.907382832016374,,,,,,,,"{'min': 0, 'max': 5, 'mean': 0.5}",,,,
203,,html-keyboard-response,203,182405,0.0-7.0-17.0,,<div class = centerbox><div class = fixation>+</div></div>,,test_fixation,500.0,,test,3.0,500.0,,,,,,,,,,,,
204,,html-keyboard-response,204,183913,0.0-7.0-18.0,,<div class = bigbox><div class = centerbox><div class = gng_number><div class = cue-text><img class = center src='/static/experiments/n_back_rdoc/images/uppercase_T.png'></img></div></div></div></div>,,test_trial,1500.0,,test,3.0,1000.0,"['.', ',']",mismatch,T,",",1.0,uppercase,0,,,,,
205,,html-keyboard-response,205,183946,0.0-7.0-19.0,,<div class = centerbox><div class = fixation>+</div></div>,,test_ITI,29.714318351878386,,test,3.0,29.714318351878386,,,,,,,,"{'min': 0, 'max': 5, 'mean': 0.5}",,,,
206,,html-keyboard-response,206,184451,0.0-7.0-20.0,,<div class = centerbox><div class = fixation>+</div></div>,,test_fixation,500.0,,test,3.0,500.0,,,,,,,,,,,,
207,,html-keyboard-response,207,185958,0.0-7.0-21.0,,<div class = bigbox><div class = centerbox><div class = gng_number><div class = cue-text><img class = center src='/static/experiments/n_back_rdoc/images/lowercase_B.png'></img></div></div></div></div>,,test_trial,1500.0,,test,3.0,1000.0,"['.', ',']",mismatch,b,",",1.0,lowercase,0,,,,,
208,,html-keyboard-response,208,186408,0.0-7.0-22.0,,<div class = centerbox><div class = fixation>+</div></div>,,test_ITI,447.0445810320598,,test,3.0,447.0445810320598,,,,,,,,"{'min': 0, 'max': 5, 'mean': 0.5}",,,,
209,,html-keyboard-response,209,186913,0.0-7.0-23.0,,<div class = centerbox><div class = fixation>+</div></div>,,test_fixation,500.0,,test,3.0,500.0,,,,,,,,,,,,
210,,html-keyboard-response,210,188420,0.0-7.0-24.0,,<div class = bigbox><div class = centerbox><div class = gng_number><div class = cue-text><img class = center src='/static/experiments/n_back_rdoc/images/lowercase_G.png'></img></div></div></div></div>,,test_trial,1500.0,,test,3.0,1000.0,"['.', ',']",mismatch,g,",",1.0,lowercase,0,,,,,
211,,html-keyboard-response,211,188990,0.0-7.0-25.0,,<div class = centerbox><div class = fixation>+</div></div>,,test_ITI,563.9824302608027,,test,3.0,563.9824302608027,,,,,,,,"{'min': 0, 'max': 5, 'mean': 0.5}",,,,
212,,html-keyboard-response,212,189494,0.0-7.0-26.0,,<div class = centerbox><div class = fixation>+</div></div>,,test_fixation,500.0,,test,3.0,500.0,,,,,,,,,,,,
213,,html-keyboard-response,213,191003,0.0-7.0-27.0,,<div class = bigbox><div class = centerbox><div class = gng_number><div class = cue-text><img class = center src='/static/experiments/n_back_rdoc/images/uppercase_T.png'></img></div></div></div></div>,,test_trial,1500.0,,test,3.0,1000.0,"['.', ',']",mismatch,T,",",1.0,uppercase,0,,,,,
214,,html-keyboard-response,214,192385,0.0-7.0-28.0,,<div class = centerbox><div class = fixation>+</div></div>,,test_ITI,1378.8783884244806,,test,3.0,1378.8783884244806,,,,,,,,"{'min': 0, 'max': 5, 'mean': 0.5}",,,,
215,,html-keyboard-response,215,192890,0.0-7.0-29.0,,<div class = centerbox><div class = fixation>+</div></div>,,test_fixation,500.0,,test,3.0,500.0,,,,,,,,,,,,
216,,html-keyboard-response,216,194397,0.0-7.0-30.0,,<div class = bigbox><div class = centerbox><div class = gng_number><div class = cue-text><img class = center src='/static/experiments/n_back_rdoc/images/uppercase_D.png'></img></div></div></div></div>,,test_trial,1500.0,,test,3.0,1000.0,"['.', ',']",mismatch,D,",",1.0,uppercase,0,,,,,
217,,html-keyboard-response,217,194889,0.0-7.0-31.0,,<div class = centerbox><div class = fixation>+</div></div>,,test_ITI,489.5747412821957,,test,3.0,489.5747412821957,,,,,,,,"{'min': 0, 'max': 5, 'mean': 0.5}",,,,
218,,html-keyboard-response,218,195392,0.0-7.0-32.0,,<div class = centerbox><div class = fixation>+</div></div>,,test_fixation,500.0,,test,3.0,500.0,,,,,,,,,,,,
219,,html-keyboard-response,219,196900,0.0-7.0-33.0,,<div class = bigbox><div class = centerbox><div class = gng_number><div class = cue-text><img class = center src='/static/experiments/n_back_rdoc/images/lowercase_B.png'></img></div></div></div></div>,,test_trial,1500.0,,test,3.0,1000.0,"['.', ',']",mismatch,b,",",1.0,lowercase,0,,,,,
220,,html-keyboard-response,220,197328,0.0-7.0-34.0,,<div class = centerbox><div class = fixation>+</div></div>,,test_ITI,422.1230900191428,,test,3.0,422.1230900191428,,,,,,,,"{'min': 0, 'max': 5, 'mean': 0.5}",,,,
221,,html-keyboard-response,221,197834,0.0-7.0-35.0,,<div class = centerbox><div class = fixation>+</div></div>,,test_fixation,500.0,,test,3.0,500.0,,,,,,,,,,,,
222,,html-keyboard-response,222,199342,0.0-7.0-36.0,,<div class = bigbox><div class = centerbox><div class = gng_number><div class = cue-text><img class = center src='/static/experiments/n_back_rdoc/images/lowercase_T.png'></img></div></div></div></div>,,test_trial,1500.0,,test,3.0,1000.0,"['.', ',']",mismatch,t,",",1.0,lowercase,0,,,,,
223,,html-keyboard-response,223,200263,0.0-7.0-37.0,,<div class = centerbox><div class = fixation>+</div></div>,,test_ITI,914.4056150616684,,test,3.0,914.4056150616684,,,,,,,,"{'min': 0, 'max': 5, 'mean': 0.5}",,,,
224,,html-keyboard-response,224,200770,0.0-7.0-38.0,,<div class = centerbox><div class = fixation>+</div></div>,,test_fixation,500.0,,test,3.0,500.0,,,,,,,,,,,,
225,,html-keyboard-response,225,202278,0.0-7.0-39.0,,<div class = bigbox><div class = centerbox><div class = gng_number><div class = cue-text><img class = center src='/static/experiments/n_back_rdoc/images/lowercase_D.png'></img></div></div></div></div>,,test_trial,1500.0,,test,3.0,1000.0,"['.', ',']",mismatch,d,",",1.0,lowercase,0,,,,,
226,,html-keyboard-response,226,203102,0.0-7.0-40.0,,<div class = centerbox><div class = fixation>+</div></div>,,test_ITI,822.3135941451219,,test,3.0,822.3135941451219,,,,,,,,"{'min': 0, 'max': 5, 'mean': 0.5}",,,,
227,,html-keyboard-response,227,204763,0.0-8.0-0.0,1658.0,"<div class = bigbox><div class = picture_box><p class = block-text>
    <div class = centerbox><p class = block-text>Please take this time to read your feedback! This screen will advance automatically in 1 minute.</p><p class=block-text>You have completed 4 out of 10 blocks of trials.</p>
        <p class=""block-text"">Your accuracy is low. Remember:</p>
        
  <ul style=""text-align:left;"">
    <li>Match the current letter to the letter that appeared some number of trials ago</li>
    <li>Match: middle finger</li>
    <li>Mismatch: index finger</li>
  </ul>

      
        <p class=""block-text"">You have not been responding to some trials. Please respond on every trial that requires a response.</p>
      <p class=block-text><b>Your delay for this next block is 2</b>.</p><p class=block-text>Press <i>enter</i> to continue.</p></div>
    </font></p></div></div>",enter,test_feedback,60000.0,,test,4.0,,,,,,,,,,,,,
228,,html-keyboard-response,228,205528,0.0-8.0-1.0-0.0,764.0,,m,test_attention_check,,,test,4.0,,,,,,,,False,,<p class='block-text'>Press the key for the third letter of the English alphabet.</p> <div class=block-text>This screen will advance automatically in 1 minute.</div>,67.0,,
229,,html-keyboard-response,229,206030,0.0-8.0-2.0,,<div class = centerbox><div class = fixation>+</div></div>,,test_fixation,500.0,,test,4.0,500.0,,,,,,,,,,,,
230,,html-keyboard-response,230,207537,0.0-8.0-3.0,,<div class = bigbox><div class = centerbox><div class = gng_number><div class = cue-text><img class = center src='/static/experiments/n_back_rdoc/images/uppercase_V.png'></img></div></div></div></div>,,test_trial,1500.0,,test,4.0,1000.0,"['.', ',']",N/A,V,",",2.0,uppercase,0,,,,,
231,,html-keyboard-response,231,209913,0.0-8.0-4.0,,<div class = centerbox><div class = fixation>+</div></div>,,test_ITI,2370.9400885157274,,test,4.0,2370.9400885157274,,,,,,,,"{'min': 0, 'max': 5, 'mean': 0.5}",,,,
232,,html-keyboard-response,232,210416,0.0-8.0-5.0,,<div class = centerbox><div class = fixation>+</div></div>,,test_fixation,500.0,,test,4.0,500.0,,,,,,,,,,,,
233,,html-keyboard-response,233,211924,0.0-8.0-6.0,,<div class = bigbox><div class = centerbox><div class = gng_number><div class = cue-text><img class = center src='/static/experiments/n_back_rdoc/images/uppercase_G.png'></img></div></div></div></div>,,test_trial,1500.0,,test,4.0,1000.0,"['.', ',']",N/A,G,",",2.0,uppercase,0,,,,,
234,,html-keyboard-response,234,212188,0.0-8.0-7.0,,<div class = centerbox><div class = fixation>+</div></div>,,test_ITI,258.3639870963381,,test,4.0,258.3639870963381,,,,,,,,"{'min': 0, 'max': 5, 'mean': 0.5}",,,,
235,,html-keyboard-response,235,212693,0.0-8.0-8.0,,<div class = centerbox><div class = fixation>+</div></div>,,test_fixation,500.0,,test,4.0,500.0,,,,,,,,,,,,
236,,html-keyboard-response,236,214196,0.0-8.0-9.0,,<div class = bigbox><div class = centerbox><div class = gng_number><div class = cue-text><img class = center src='/static/experiments/n_back_rdoc/images/lowercase_T.png'></img></div></div></div></div>,,test_trial,1500.0,,test,4.0,1000.0,"['.', ',']",mismatch,t,",",2.0,lowercase,0,,,,,
237,,html-keyboard-response,237,214254,0.0-8.0-10.0,,<div class = centerbox><div class = fixation>+</div></div>,,test_ITI,56.98675540930818,,test,4.0,56.98675540930818,,,,,,,,"{'min': 0, 'max': 5, 'mean': 0.5}",,,,
238,,html-keyboard-response,238,214757,0.0-8.0-11.0,,<div class = centerbox><div class = fixation>+</div></div>,,test_fixation,500.0,,test,4.0,500.0,,,,,,,,,,,,
239,,html-keyboard-response,239,216263,0.0-8.0-12.0,,<div class = bigbox><div class = centerbox><div class = gng_number><div class = cue-text><img class = center src='/static/experiments/n_back_rdoc/images/lowercase_G.png'></img></div></div></div></div>,,test_trial,1500.0,,test,4.0,1000.0,"['.', ',']",match,g,.,2.0,lowercase,0,,,,,
240,,html-keyboard-response,240,216458,0.0-8.0-13.0,,<div class = centerbox><div class = fixation>+</div></div>,,test_ITI,188.15654458384313,,test,4.0,188.15654458384313,,,,,,,,"{'min': 0, 'max': 5, 'mean': 0.5}",,,,
241,,html-keyboard-response,241,216963,0.0-8.0-14.0,,<div class = centerbox><div class = fixation>+</div></div>,,test_fixation,500.0,,test,4.0,500.0,,,,,,,,,,,,
242,,html-keyboard-response,242,218471,0.0-8.0-15.0,,<div class = bigbox><div class = centerbox><div class = gng_number><div class = cue-text><img class = center src='/static/experiments/n_back_rdoc/images/lowercase_V.png'></img></div></div></div></div>,,test_trial,1500.0,,test,4.0,1000.0,"['.', ',']",mismatch,v,",",2.0,lowercase,0,,,,,
243,,html-keyboard-response,243,218571,0.0-8.0-16.0,,<div class = centerbox><div class = fixation>+</div></div>,,test_ITI,94.5917367303446,,test,4.0,94.5917367303446,,,,,,,,"{'min': 0, 'max': 5, 'mean': 0.5}",,,,
244,,html-keyboard-response,244,219074,0.0-8.0-17.0,,<div class = centerbox><div class = fixation>+</div></div>,,test_fixation,500.0,,test,4.0,500.0,,,,,,,,,,,,
245,,html-keyboard-response,245,220577,0.0-8.0-18.0,,<div class = bigbox><div class = centerbox><div class = gng_number><div class = cue-text><img class = center src='/static/experiments/n_back_rdoc/images/uppercase_G.png'></img></div></div></div></div>,,test_trial,1500.0,,test,4.0,1000.0,"['.', ',']",match,G,.,2.0,uppercase,0,,,,,
246,,html-keyboard-response,246,220761,0.0-8.0-19.0,,<div class = centerbox><div class = fixation>+</div></div>,,test_ITI,179.63972199878486,,test,4.0,179.63972199878486,,,,,,,,"{'min': 0, 'max': 5, 'mean': 0.5}",,,,
247,,html-keyboard-response,247,221265,0.0-8.0-20.0,,<div class = centerbox><div class = fixation>+</div></div>,,test_fixation,500.0,,test,4.0,500.0,,,,,,,,,,,,
248,,html-keyboard-response,248,222770,0.0-8.0-21.0,,<div class = bigbox><div class = centerbox><div class = gng_number><div class = cue-text><img class = center src='/static/experiments/n_back_rdoc/images/lowercase_G.png'></img></div></div></div></div>,,test_trial,1500.0,,test,4.0,1000.0,"['.', ',']",mismatch,g,",",2.0,lowercase,0,,,,,
249,,html-keyboard-response,249,222956,0.0-8.0-22.0,,<div class = centerbox><div class = fixation>+</div></div>,,test_ITI,183.22646494529087,,test,4.0,183.22646494529087,,,,,,,,"{'min': 0, 'max': 5, 'mean': 0.5}",,,,
250,,html-keyboard-response,250,223460,0.0-8.0-23.0,,<div class = centerbox><div class = fixation>+</div></div>,,test_fixation,500.0,,test,4.0,500.0,,,,,,,,,,,,
251,,html-keyboard-response,251,224968,0.0-8.0-24.0,,<div class = bigbox><div class = centerbox><div class = gng_number><div class = cue-text><img class = center src='/static/experiments/n_back_rdoc/images/lowercase_D.png'></img></div></div></div></div>,,test_trial,1500.0,,test,4.0,1000.0,"['.', ',']",mismatch,d,",",2.0,lowercase,0,,,,,
252,,html-keyboard-response,252,225437,0.0-8.0-25.0,,<div class = centerbox><div class = fixation>+</div></div>,,test_ITI,464.1756960794213,,test,4.0,464.1756960794213,,,,,,,,"{'min': 0, 'max': 5, 'mean': 0.5}",,,,
253,,html-keyboard-response,253,225943,0.0-8.0-26.0,,<div class = centerbox><div class = fixation>+</div></div>,,test_fixation,500.0,,test,4.0,500.0,,,,,,,,,,,,
254,,html-keyboard-response,254,227452,0.0-8.0-27.0,,<div class = bigbox><div class = centerbox><div class = gng_number><div class = cue-text><img class = center src='/static/experiments/n_back_rdoc/images/lowercase_V.png'></img></div></div></div></div>,,test_trial,1500.0,,test,4.0,1000.0,"['.', ',']",mismatch,v,",",2.0,lowercase,0,,,,,
255,,html-keyboard-response,255,228554,0.0-8.0-28.0,,<div class = centerbox><div class = fixation>+</div></div>,,test_ITI,1095.3105628401238,,test,4.0,1095.3105628401238,,,,,,,,"{'min': 0, 'max': 5, 'mean': 0.5}",,,,
256,,html-keyboard-response,256,229058,0.0-8.0-29.0,,<div class = centerbox><div class = fixation>+</div></div>,,test_fixation,500.0,,test,4.0,500.0,,,,,,,,,,,,
257,,html-keyboard-response,257,230566,0.0-8.0-30.0,,<div class = bigbox><div class = centerbox><div class = gng_number><div class = cue-text><img class = center src='/static/experiments/n_back_rdoc/images/lowercase_D.png'></img></div></div></div></div>,,test_trial,1500.0,,test,4.0,1000.0,"['.', ',']",match,d,.,2.0,lowercase,0,,,,,
258,,html-keyboard-response,258,230839,0.0-8.0-31.0,,<div class = centerbox><div class = fixation>+</div></div>,,test_ITI,270.2905373632029,,test,4.0,270.2905373632029,,,,,,,,"{'min': 0, 'max': 5, 'mean': 0.5}",,,,
259,,html-keyboard-response,259,231342,0.0-8.0-32.0,,<div class = centerbox><div class = fixation>+</div></div>,,test_fixation,500.0,,test,4.0,500.0,,,,,,,,,,,,
260,,html-keyboard-response,260,232849,0.0-8.0-33.0,,<div class = bigbox><div class = centerbox><div class = gng_number><div class = cue-text><img class = center src='/static/experiments/n_back_rdoc/images/lowercase_T.png'></img></div></div></div></div>,,test_trial,1500.0,,test,4.0,1000.0,"['.', ',']",mismatch,t,",",2.0,lowercase,0,,,,,
261,,html-keyboard-response,261,233428,0.0-8.0-34.0,,<div class = centerbox><div class = fixation>+</div></div>,,test_ITI,573.5180698827976,,test,4.0,573.5180698827976,,,,,,,,"{'min': 0, 'max': 5, 'mean': 0.5}",,,,
262,,html-keyboard-response,262,233935,0.0-8.0-35.0,,<div class = centerbox><div class = fixation>+</div></div>,,test_fixation,500.0,,test,4.0,500.0,,,,,,,,,,,,
263,,html-keyboard-response,263,235441,0.0-8.0-36.0,,<div class = bigbox><div class = centerbox><div class = gng_number><div class = cue-text><img class = center src='/static/experiments/n_back_rdoc/images/uppercase_T.png'></img></div></div></div></div>,,test_trial,1500.0,,test,4.0,1000.0,"['.', ',']",mismatch,T,",",2.0,uppercase,0,,,,,
264,,html-keyboard-response,264,235663,0.0-8.0-37.0,,<div class = centerbox><div class = fixation>+</div></div>,,test_ITI,217.7997576407615,,test,4.0,217.7997576407615,,,,,,,,"{'min': 0, 'max': 5, 'mean': 0.5}",,,,
265,,html-keyboard-response,265,236165,0.0-8.0-38.0,,<div class = centerbox><div class = fixation>+</div></div>,,test_fixation,500.0,,test,4.0,500.0,,,,,,,,,,,,
266,,html-keyboard-response,266,237670,0.0-8.0-39.0,,<div class = bigbox><div class = centerbox><div class = gng_number><div class = cue-text><img class = center src='/static/experiments/n_back_rdoc/images/uppercase_B.png'></img></div></div></div></div>,,test_trial,1500.0,,test,4.0,1000.0,"['.', ',']",mismatch,B,",",2.0,uppercase,0,,,,,
267,,html-keyboard-response,267,237676,0.0-8.0-40.0,,<div class = centerbox><div class = fixation>+</div></div>,,test_ITI,0.04720650526910301,,test,4.0,0.04720650526910301,,,,,,,,"{'min': 0, 'max': 5, 'mean': 0.5}",,,,
268,,html-keyboard-response,268,238181,0.0-8.0-41.0,,<div class = centerbox><div class = fixation>+</div></div>,,test_fixation,500.0,,test,4.0,500.0,,,,,,,,,,,,
269,,html-keyboard-response,269,239683,0.0-8.0-42.0,,<div class = bigbox><div class = centerbox><div class = gng_number><div class = cue-text><img class = center src='/static/experiments/n_back_rdoc/images/lowercase_D.png'></img></div></div></div></div>,,test_trial,1500.0,,test,4.0,1000.0,"['.', ',']",mismatch,d,",",2.0,lowercase,0,,,,,
270,,html-keyboard-response,270,240566,0.0-8.0-43.0,,<div class = centerbox><div class = fixation>+</div></div>,,test_ITI,877.5171034113214,,test,4.0,877.5171034113214,,,,,,,,"{'min': 0, 'max': 5, 'mean': 0.5}",,,,
271,,html-keyboard-response,271,242786,0.0-9.0-0.0,2217.0,"<div class = bigbox><div class = picture_box><p class = block-text>
    <div class = centerbox><p class = block-text>Please take this time to read your feedback! This screen will advance automatically in 1 minute.</p><p class=block-text>You have completed 5 out of 10 blocks of trials.</p>
        <p class=""block-text"">Your accuracy is low. Remember:</p>
        
  <ul style=""text-align:left;"">
    <li>Match the current letter to the letter that appeared some number of trials ago</li>
    <li>Match: middle finger</li>
    <li>Mismatch: index finger</li>
  </ul>

      
        <p class=""block-text"">You have not been responding to some trials. Please respond on every trial that requires a response.</p>
      <p class=block-text><b>Your delay for this next block is 1</b>.</p><p class=block-text>Press <i>enter</i> to continue.</p></div>
    </font></p></div></div>",enter,test_feedback,60000.0,,test,5.0,,,,,,,,,,,,,
272,,html-keyboard-response,272,243962,0.0-9.0-1.0-0.0,1175.0,,q,test_attention_check,,,test,5.0,,,,,,,,True,,<p class='block-text'>Press the Q key</p> <div class=block-text>This screen will advance automatically in 1 minute.</div>,81.0,,
273,,html-keyboard-response,273,244465,0.0-9.0-2.0,,<div class = centerbox><div class = fixation>+</div></div>,,test_fixation,500.0,,test,5.0,500.0,,,,,,,,,,,,
274,,html-keyboard-response,274,245973,0.0-9.0-3.0,,<div class = bigbox><div class = centerbox><div class = gng_number><div class = cue-text><img class = center src='/static/experiments/n_back_rdoc/images/uppercase_V.png'></img></div></div></div></div>,,test_trial,1500.0,,test,5.0,1000.0,"['.', ',']",N/A,V,",",1.0,uppercase,0,,,,,
275,,html-keyboard-response,275,246237,0.0-9.0-4.0,,<div class = centerbox><div class = fixation>+</div></div>,,test_ITI,257.97504117452576,,test,5.0,257.97504117452576,,,,,,,,"{'min': 0, 'max': 5, 'mean': 0.5}",,,,
276,,html-keyboard-response,276,246741,0.0-9.0-5.0,,<div class = centerbox><div class = fixation>+</div></div>,,test_fixation,500.0,,test,5.0,500.0,,,,,,,,,,,,
277,,html-keyboard-response,277,248244,0.0-9.0-6.0,,<div class = bigbox><div class = centerbox><div class = gng_number><div class = cue-text><img class = center src='/static/experiments/n_back_rdoc/images/uppercase_D.png'></img></div></div></div></div>,,test_trial,1500.0,,test,5.0,1000.0,"['.', ',']",mismatch,D,",",1.0,uppercase,0,,,,,
278,,html-keyboard-response,278,248279,0.0-9.0-7.0,,<div class = centerbox><div class = fixation>+</div></div>,,test_ITI,34.504431907628,,test,5.0,34.504431907628,,,,,,,,"{'min': 0, 'max': 5, 'mean': 0.5}",,,,
279,,html-keyboard-response,279,248783,0.0-9.0-8.0,,<div class = centerbox><div class = fixation>+</div></div>,,test_fixation,500.0,,test,5.0,500.0,,,,,,,,,,,,
280,,html-keyboard-response,280,250290,0.0-9.0-9.0,,<div class = bigbox><div class = centerbox><div class = gng_number><div class = cue-text><img class = center src='/static/experiments/n_back_rdoc/images/uppercase_D.png'></img></div></div></div></div>,,test_trial,1500.0,,test,5.0,1000.0,"['.', ',']",match,D,.,1.0,uppercase,0,,,,,
281,,html-keyboard-response,281,250321,0.0-9.0-10.0,,<div class = centerbox><div class = fixation>+</div></div>,,test_ITI,30.739523647510868,,test,5.0,30.739523647510868,,,,,,,,"{'min': 0, 'max': 5, 'mean': 0.5}",,,,
282,,html-keyboard-response,282,250825,0.0-9.0-11.0,,<div class = centerbox><div class = fixation>+</div></div>,,test_fixation,500.0,,test,5.0,500.0,,,,,,,,,,,,
283,,html-keyboard-response,283,252333,0.0-9.0-12.0,,<div class = bigbox><div class = centerbox><div class = gng_number><div class = cue-text><img class = center src='/static/experiments/n_back_rdoc/images/uppercase_D.png'></img></div></div></div></div>,,test_trial,1500.0,,test,5.0,1000.0,"['.', ',']",match,D,.,1.0,uppercase,0,,,,,
284,,html-keyboard-response,284,254207,0.0-9.0-13.0,,<div class = centerbox><div class = fixation>+</div></div>,,test_ITI,1867.6362867985167,,test,5.0,1867.6362867985167,,,,,,,,"{'min': 0, 'max': 5, 'mean': 0.5}",,,,
285,,html-keyboard-response,285,254711,0.0-9.0-14.0,,<div class = centerbox><div class = fixation>+</div></div>,,test_fixation,500.0,,test,5.0,500.0,,,,,,,,,,,,
286,,html-keyboard-response,286,256219,0.0-9.0-15.0,,<div class = bigbox><div class = centerbox><div class = gng_number><div class = cue-text><img class = center src='/static/experiments/n_back_rdoc/images/uppercase_B.png'></img></div></div></div></div>,,test_trial,1500.0,,test,5.0,1000.0,"['.', ',']",mismatch,B,",",1.0,uppercase,0,,,,,
287,,html-keyboard-response,287,256349,0.0-9.0-16.0,,<div class = centerbox><div class = fixation>+</div></div>,,test_ITI,128.20317747627408,,test,5.0,128.20317747627408,,,,,,,,"{'min': 0, 'max': 5, 'mean': 0.5}",,,,
288,,html-keyboard-response,288,256854,0.0-9.0-17.0,,<div class = centerbox><div class = fixation>+</div></div>,,test_fixation,500.0,,test,5.0,500.0,,,,,,,,,,,,
289,,html-keyboard-response,289,258357,0.0-9.0-18.0,,<div class = bigbox><div class = centerbox><div class = gng_number><div class = cue-text><img class = center src='/static/experiments/n_back_rdoc/images/lowercase_D.png'></img></div></div></div></div>,,test_trial,1500.0,,test,5.0,1000.0,"['.', ',']",mismatch,d,",",1.0,lowercase,0,,,,,
290,,html-keyboard-response,290,259580,0.0-9.0-19.0,,<div class = centerbox><div class = fixation>+</div></div>,,test_ITI,1216.4683837283926,,test,5.0,1216.4683837283926,,,,,,,,"{'min': 0, 'max': 5, 'mean': 0.5}",,,,
291,,html-keyboard-response,291,260087,0.0-9.0-20.0,,<div class = centerbox><div class = fixation>+</div></div>,,test_fixation,500.0,,test,5.0,500.0,,,,,,,,,,,,
292,,html-keyboard-response,292,261595,0.0-9.0-21.0,,<div class = bigbox><div class = centerbox><div class = gng_number><div class = cue-text><img class = center src='/static/experiments/n_back_rdoc/images/lowercase_T.png'></img></div></div></div></div>,,test_trial,1500.0,,test,5.0,1000.0,"['.', ',']",mismatch,t,",",1.0,lowercase,0,,,,,
293,,html-keyboard-response,293,262281,0.0-9.0-22.0,,<div class = centerbox><div class = fixation>+</div></div>,,test_ITI,681.769962772032,,test,5.0,681.769962772032,,,,,,,,"{'min': 0, 'max': 5, 'mean': 0.5}",,,,
294,,html-keyboard-response,294,262786,0.0-9.0-23.0,,<div class = centerbox><div class = fixation>+</div></div>,,test_fixation,500.0,,test,5.0,500.0,,,,,,,,,,,,
295,,html-keyboard-response,295,264294,0.0-9.0-24.0,,<div class = bigbox><div class = centerbox><div class = gng_number><div class = cue-text><img class = center src='/static/experiments/n_back_rdoc/images/lowercase_D.png'></img></div></div></div></div>,,test_trial,1500.0,,test,5.0,1000.0,"['.', ',']",mismatch,d,",",1.0,lowercase,0,,,,,
296,,html-keyboard-response,296,264410,0.0-9.0-25.0,,<div class = centerbox><div class = fixation>+</div></div>,,test_ITI,114.72875622978367,,test,5.0,114.72875622978367,,,,,,,,"{'min': 0, 'max': 5, 'mean': 0.5}",,,,
297,,html-keyboard-response,297,264917,0.0-9.0-26.0,,<div class = centerbox><div class = fixation>+</div></div>,,test_fixation,500.0,,test,5.0,500.0,,,,,,,,,,,,
298,,html-keyboard-response,298,266425,0.0-9.0-27.0,,<div class = bigbox><div class = centerbox><div class = gng_number><div class = cue-text><img class = center src='/static/experiments/n_back_rdoc/images/uppercase_D.png'></img></div></div></div></div>,,test_trial,1500.0,,test,5.0,1000.0,"['.', ',']",match,D,.,1.0,uppercase,0,,,,,
299,,html-keyboard-response,299,267282,0.0-9.0-28.0,,<div class = centerbox><div class = fixation>+</div></div>,,test_ITI,851.1824485701273,,test,5.0,851.1824485701273,,,,,,,,"{'min': 0, 'max': 5, 'mean': 0.5}",,,,
300,,html-keyboard-response,300,267787,0.0-9.0-29.0,,<div class = centerbox><div class = fixation>+</div></div>,,test_fixation,500.0,,test,5.0,500.0,,,,,,,,,,,,
301,,html-keyboard-response,301,269294,0.0-9.0-30.0,,<div class = bigbox><div class = centerbox><div class = gng_number><div class = cue-text><img class = center src='/static/experiments/n_back_rdoc/images/lowercase_B.png'></img></div></div></div></div>,,test_trial,1500.0,,test,5.0,1000.0,"['.', ',']",mismatch,b,",",1.0,lowercase,0,,,,,
302,,html-keyboard-response,302,269712,0.0-9.0-31.0,,<div class = centerbox><div class = fixation>+</div></div>,,test_ITI,412.11550691140775,,test,5.0,412.11550691140775,,,,,,,,"{'min': 0, 'max': 5, 'mean': 0.5}",,,,
303,,html-keyboard-response,303,270216,0.0-9.0-32.0,,<div class = centerbox><div class = fixation>+</div></div>,,test_fixation,500.0,,test,5.0,500.0,,,,,,,,,,,,
304,,html-keyboard-response,304,271723,0.0-9.0-33.0,,<div class = bigbox><div class = centerbox><div class = gng_number><div class = cue-text><img class = center src='/static/experiments/n_back_rdoc/images/uppercase_V.png'></img></div></div></div></div>,,test_trial,1500.0,,test,5.0,1000.0,"['.', ',']",mismatch,V,",",1.0,uppercase,0,,,,,
305,,html-keyboard-response,305,272585,0.0-9.0-34.0,,<div class = centerbox><div class = fixation>+</div></div>,,test_ITI,855.0160807023894,,test,5.0,855.0160807023894,,,,,,,,"{'min': 0, 'max': 5, 'mean': 0.5}",,,,
306,,html-keyboard-response,306,273089,0.0-9.0-35.0,,<div class = centerbox><div class = fixation>+</div></div>,,test_fixation,500.0,,test,5.0,500.0,,,,,,,,,,,,
307,,html-keyboard-response,307,274593,0.0-9.0-36.0,,<div class = bigbox><div class = centerbox><div class = gng_number><div class = cue-text><img class = center src='/static/experiments/n_back_rdoc/images/uppercase_B.png'></img></div></div></div></div>,,test_trial,1500.0,,test,5.0,1000.0,"['.', ',']",mismatch,B,",",1.0,uppercase,0,,,,,
308,,html-keyboard-response,308,274631,0.0-9.0-37.0,,<div class = centerbox><div class = fixation>+</div></div>,,test_ITI,36.157357133161966,,test,5.0,36.157357133161966,,,,,,,,"{'min': 0, 'max': 5, 'mean': 0.5}",,,,
309,,html-keyboard-response,309,275135,0.0-9.0-38.0,,<div class = centerbox><div class = fixation>+</div></div>,,test_fixation,500.0,,test,5.0,500.0,,,,,,,,,,,,
310,,html-keyboard-response,310,276640,0.0-9.0-39.0,,<div class = bigbox><div class = centerbox><div class = gng_number><div class = cue-text><img class = center src='/static/experiments/n_back_rdoc/images/uppercase_D.png'></img></div></div></div></div>,,test_trial,1500.0,,test,5.0,1000.0,"['.', ',']",mismatch,D,",",1.0,uppercase,0,,,,,
311,,html-keyboard-response,311,276834,0.0-9.0-40.0,,<div class = centerbox><div class = fixation>+</div></div>,,test_ITI,188.48241457345517,,test,5.0,188.48241457345517,,,,,,,,"{'min': 0, 'max': 5, 'mean': 0.5}",,,,
312,,html-keyboard-response,312,278357,0.0-10.0-0.0,1520.0,"<div class = bigbox><div class = picture_box><p class = block-text>
    <div class = centerbox><p class = block-text>Please take this time to read your feedback! This screen will advance automatically in 1 minute.</p><p class=block-text>You have completed 6 out of 10 blocks of trials.</p>
        <p class=""block-text"">Your accuracy is low. Remember:</p>
        
  <ul style=""text-align:left;"">
    <li>Match the current letter to the letter that appeared some number of trials ago</li>
    <li>Match: middle finger</li>
    <li>Mismatch: index finger</li>
  </ul>

      
        <p class=""block-text"">You have not been responding to some trials. Please respond on every trial that requires a response.</p>
      <p class=block-text><b>Your delay for this next block is 2</b>.</p><p class=block-text>Press <i>enter</i> to continue.</p></div>
    </font></p></div></div>",enter,test_feedback,60000.0,,test,6.0,,,,,,,,,,,,,
313,,html-keyboard-response,313,279491,0.0-10.0-1.0-0.0,1133.0,,l,test_attention_check,,,test,6.0,,,,,,,,True,,<p class='block-text'>Press the L key</p> <div class=block-text>This screen will advance automatically in 1 minute.</div>,76.0,,
314,,html-keyboard-response,314,279996,0.0-10.0-2.0,,<div class = centerbox><div class = fixation>+</div></div>,,test_fixation,500.0,,test,6.0,500.0,,,,,,,,,,,,
315,,html-keyboard-response,315,281502,0.0-10.0-3.0,,<div class = bigbox><div class = centerbox><div class = gng_number><div class = cue-text><img class = center src='/static/experiments/n_back_rdoc/images/lowercase_T.png'></img></div></div></div></div>,,test_trial,1500.0,,test,6.0,1000.0,"['.', ',']",N/A,t,",",2.0,lowercase,0,,,,,
316,,html-keyboard-response,316,281916,0.0-10.0-4.0,,<div class = centerbox><div class = fixation>+</div></div>,,test_ITI,408.23428015191274,,test,6.0,408.23428015191274,,,,,,,,"{'min': 0, 'max': 5, 'mean': 0.5}",,,,
317,,html-keyboard-response,317,282421,0.0-10.0-5.0,,<div class = centerbox><div class = fixation>+</div></div>,,test_fixation,500.0,,test,6.0,500.0,,,,,,,,,,,,
318,,html-keyboard-response,318,283929,0.0-10.0-6.0,,<div class = bigbox><div class = centerbox><div class = gng_number><div class = cue-text><img class = center src='/static/experiments/n_back_rdoc/images/lowercase_D.png'></img></div></div></div></div>,,test_trial,1500.0,,test,6.0,1000.0,"['.', ',']",N/A,d,",",2.0,lowercase,0,,,,,
319,,html-keyboard-response,319,284115,0.0-10.0-7.0,,<div class = centerbox><div class = fixation>+</div></div>,,test_ITI,183.76277893440772,,test,6.0,183.76277893440772,,,,,,,,"{'min': 0, 'max': 5, 'mean': 0.5}",,,,
320,,html-keyboard-response,320,284620,0.0-10.0-8.0,,<div class = centerbox><div class = fixation>+</div></div>,,test_fixation,500.0,,test,6.0,500.0,,,,,,,,,,,,
321,,html-keyboard-response,321,286129,0.0-10.0-9.0,,<div class = bigbox><div class = centerbox><div class = gng_number><div class = cue-text><img class = center src='/static/experiments/n_back_rdoc/images/uppercase_V.png'></img></div></div></div></div>,,test_trial,1500.0,,test,6.0,1000.0,"['.', ',']",mismatch,V,",",2.0,uppercase,0,,,,,
322,,html-keyboard-response,322,286766,0.0-10.0-10.0,,<div class = centerbox><div class = fixation>+</div></div>,,test_ITI,634.7871354345351,,test,6.0,634.7871354345351,,,,,,,,"{'min': 0, 'max': 5, 'mean': 0.5}",,,,
323,,html-keyboard-response,323,287268,0.0-10.0-11.0,,<div class = centerbox><div class = fixation>+</div></div>,,test_fixation,500.0,,test,6.0,500.0,,,,,,,,,,,,
324,,html-keyboard-response,324,288776,0.0-10.0-12.0,,<div class = bigbox><div class = centerbox><div class = gng_number><div class = cue-text><img class = center src='/static/experiments/n_back_rdoc/images/lowercase_T.png'></img></div></div></div></div>,,test_trial,1500.0,,test,6.0,1000.0,"['.', ',']",mismatch,t,",",2.0,lowercase,0,,,,,
325,,html-keyboard-response,325,288973,0.0-10.0-13.0,,<div class = centerbox><div class = fixation>+</div></div>,,test_ITI,190.90316688524774,,test,6.0,190.90316688524774,,,,,,,,"{'min': 0, 'max': 5, 'mean': 0.5}",,,,
326,,html-keyboard-response,326,289477,0.0-10.0-14.0,,<div class = centerbox><div class = fixation>+</div></div>,,test_fixation,500.0,,test,6.0,500.0,,,,,,,,,,,,
327,,html-keyboard-response,327,290984,0.0-10.0-15.0,,<div class = bigbox><div class = centerbox><div class = gng_number><div class = cue-text><img class = center src='/static/experiments/n_back_rdoc/images/lowercase_V.png'></img></div></div></div></div>,,test_trial,1500.0,,test,6.0,1000.0,"['.', ',']",match,v,.,2.0,lowercase,0,,,,,
328,,html-keyboard-response,328,291296,0.0-10.0-16.0,,<div class = centerbox><div class = fixation>+</div></div>,,test_ITI,310.6109556050038,,test,6.0,310.6109556050038,,,,,,,,"{'min': 0, 'max': 5, 'mean': 0.5}",,,,
329,,html-keyboard-response,329,291800,0.0-10.0-17.0,,<div class = centerbox><div class = fixation>+</div></div>,,test_fixation,500.0,,test,6.0,500.0,,,,,,,,,,,,
330,,html-keyboard-response,330,293307,0.0-10.0-18.0,,<div class = bigbox><div class = centerbox><div class = gng_number><div class = cue-text><img class = center src='/static/experiments/n_back_rdoc/images/uppercase_T.png'></img></div></div></div></div>,,test_trial,1500.0,,test,6.0,1000.0,"['.', ',']",match,T,.,2.0,uppercase,0,,,,,
331,,html-keyboard-response,331,293488,0.0-10.0-19.0,,<div class = centerbox><div class = fixation>+</div></div>,,test_ITI,176.84728123135483,,test,6.0,176.84728123135483,,,,,,,,"{'min': 0, 'max': 5, 'mean': 0.5}",,,,
332,,html-keyboard-response,332,293992,0.0-10.0-20.0,,<div class = centerbox><div class = fixation>+</div></div>,,test_fixation,500.0,,test,6.0,500.0,,,,,,,,,,,,
333,,html-keyboard-response,333,295499,0.0-10.0-21.0,,<div class = bigbox><div class = centerbox><div class = gng_number><div class = cue-text><img class = center src='/static/experiments/n_back_rdoc/images/uppercase_B.png'></img></div></div></div></div>,,test_trial,1500.0,,test,6.0,1000.0,"['.', ',']",mismatch,B,",",2.0,uppercase,0,,,,,
334,,html-keyboard-response,334,296246,0.0-10.0-22.0,,<div class = centerbox><div class = fixation>+</div></div>,,test_ITI,742.735927697126,,test,6.0,742.735927697126,,,,,,,,"{'min': 0, 'max': 5, 'mean': 0.5}",,,,
335,,html-keyboard-response,335,296751,0.0-10.0-23.0,,<div class = centerbox><div class = fixation>+</div></div>,,test_fixation,500.0,,test,6.0,500.0,,,,,,,,,,,,
336,,html-keyboard-response,336,298257,0.0-10.0-24.0,,<div class = bigbox><div class = centerbox><div class = gng_number><div class = cue-text><img class = center src='/static/experiments/n_back_rdoc/images/uppercase_D.png'></img></div></div></div></div>,,test_trial,1500.0,,test,6.0,1000.0,"['.', ',']",mismatch,D,",",2.0,uppercase,0,,,,,
337,,html-keyboard-response,337,298262,0.0-10.0-25.0,,<div class = centerbox><div class = fixation>+</div></div>,,test_ITI,0.36912120897756295,,test,6.0,0.36912120897756295,,,,,,,,"{'min': 0, 'max': 5, 'mean': 0.5}",,,,
338,,html-keyboard-response,338,298765,0.0-10.0-26.0,,<div class = centerbox><div class = fixation>+</div></div>,,test_fixation,500.0,,test,6.0,500.0,,,,,,,,,,,,
339,,html-keyboard-response,339,300271,0.0-10.0-27.0,,<div class = bigbox><div class = centerbox><div class = gng_number><div class = cue-text><img class = center src='/static/experiments/n_back_rdoc/images/lowercase_G.png'></img></div></div></div></div>,,test_trial,1500.0,,test,6.0,1000.0,"['.', ',']",mismatch,g,",",2.0,lowercase,0,,,,,
340,,html-keyboard-response,340,300363,0.0-10.0-28.0,,<div class = centerbox><div class = fixation>+</div></div>,,test_ITI,85.47091522653352,,test,6.0,85.47091522653352,,,,,,,,"{'min': 0, 'max': 5, 'mean': 0.5}",,,,
341,,html-keyboard-response,341,300867,0.0-10.0-29.0,,<div class = centerbox><div class = fixation>+</div></div>,,test_fixation,500.0,,test,6.0,500.0,,,,,,,,,,,,
342,,html-keyboard-response,342,302374,0.0-10.0-30.0,,<div class = bigbox><div class = centerbox><div class = gng_number><div class = cue-text><img class = center src='/static/experiments/n_back_rdoc/images/uppercase_G.png'></img></div></div></div></div>,,test_trial,1500.0,,test,6.0,1000.0,"['.', ',']",mismatch,G,",",2.0,uppercase,0,,,,,
343,,html-keyboard-response,343,304014,0.0-10.0-31.0,,<div class = centerbox><div class = fixation>+</div></div>,,test_ITI,1633.9016658970227,,test,6.0,1633.9016658970227,,,,,,,,"{'min': 0, 'max': 5, 'mean': 0.5}",,,,
344,,html-keyboard-response,344,304519,0.0-10.0-32.0,,<div class = centerbox><div class = fixation>+</div></div>,,test_fixation,500.0,,test,6.0,500.0,,,,,,,,,,,,
345,,html-keyboard-response,345,306028,0.0-10.0-33.0,,<div class = bigbox><div class = centerbox><div class = gng_number><div class = cue-text><img class = center src='/static/experiments/n_back_rdoc/images/uppercase_T.png'></img></div></div></div></div>,,test_trial,1500.0,,test,6.0,1000.0,"['.', ',']",mismatch,T,",",2.0,uppercase,0,,,,,
346,,html-keyboard-response,346,306248,0.0-10.0-34.0,,<div class = centerbox><div class = fixation>+</div></div>,,test_ITI,218.20229538521406,,test,6.0,218.20229538521406,,,,,,,,"{'min': 0, 'max': 5, 'mean': 0.5}",,,,
347,,html-keyboard-response,347,306753,0.0-10.0-35.0,,<div class = centerbox><div class = fixation>+</div></div>,,test_fixation,500.0,,test,6.0,500.0,,,,,,,,,,,,
348,,html-keyboard-response,348,308258,0.0-10.0-36.0,,<div class = bigbox><div class = centerbox><div class = gng_number><div class = cue-text><img class = center src='/static/experiments/n_back_rdoc/images/lowercase_B.png'></img></div></div></div></div>,,test_trial,1500.0,,test,6.0,1000.0,"['.', ',']",mismatch,b,",",2.0,lowercase,0,,,,,
349,,html-keyboard-response,349,309142,0.0-10.0-37.0,,<div class = centerbox><div class = fixation>+</div></div>,,test_ITI,880.5922202225629,,test,6.0,880.5922202225629,,,,,,,,"{'min': 0, 'max': 5, 'mean': 0.5}",,,,
350,,html-keyboard-response,350,309646,0.0-10.0-38.0,,<div class = centerbox><div class = fixation>+</div></div>,,test_fixation,500.0,,test,6.0,500.0,,,,,,,,,,,,
351,,html-keyboard-response,351,311152,0.0-10.0-39.0,,<div class = bigbox><div class = centerbox><div class = gng_number><div class = cue-text><img class = center src='/static/experiments/n_back_rdoc/images/lowercase_G.png'></img></div></div></div></div>,,test_trial,1500.0,,test,6.0,1000.0,"['.', ',']",mismatch,g,",",2.0,lowercase,0,,,,,
352,,html-keyboard-response,352,311410,0.0-10.0-40.0,,<div class = centerbox><div class = fixation>+</div></div>,,test_ITI,252.24304444835033,,test,6.0,252.24304444835033,,,,,,,,"{'min': 0, 'max': 5, 'mean': 0.5}",,,,
353,,html-keyboard-response,353,311916,0.0-10.0-41.0,,<div class = centerbox><div class = fixation>+</div></div>,,test_fixation,500.0,,test,6.0,500.0,,,,,,,,,,,,
354,,html-keyboard-response,354,313425,0.0-10.0-42.0,,<div class = bigbox><div class = centerbox><div class = gng_number><div class = cue-text><img class = center src='/static/experiments/n_back_rdoc/images/uppercase_B.png'></img></div></div></div></div>,,test_trial,1500.0,,test,6.0,1000.0,"['.', ',']",match,B,.,2.0,uppercase,0,,,,,
355,,html-keyboard-response,355,313492,0.0-10.0-43.0,,<div class = centerbox><div class = fixation>+</div></div>,,test_ITI,65.11296669179531,,test,6.0,65.11296669179531,,,,,,,,"{'min': 0, 'max': 5, 'mean': 0.5}",,,,
356,,html-keyboard-response,356,314935,0.0-11.0-0.0,1440.0,"<div class = bigbox><div class = picture_box><p class = block-text>
    <div class = centerbox><p class = block-text>Please take this time to read your feedback! This screen will advance automatically in 1 minute.</p><p class=block-text>You have completed 7 out of 10 blocks of trials.</p>
        <p class=""block-text"">Your accuracy is low. Remember:</p>
        
  <ul style=""text-align:left;"">
    <li>Match the current letter to the letter that appeared some number of trials ago</li>
    <li>Match: middle finger</li>
    <li>Mismatch: index finger</li>
  </ul>

      
        <p class=""block-text"">You have not been responding to some trials. Please respond on every trial that requires a response.</p>
      <p class=block-text><b>Your delay for this next block is 1</b>.</p><p class=block-text>Press <i>enter</i> to continue.</p></div>
    </font></p></div></div>",enter,test_feedback,60000.0,,test,7.0,,,,,,,,,,,,,
357,,html-keyboard-response,357,316107,0.0-11.0-1.0-0.0,1171.0,,r,test_attention_check,,,test,7.0,,,,,,,,True,,<p class='block-text'>Press the R key</p> <div class=block-text>This screen will advance automatically in 1 minute.</div>,82.0,,
358,,html-keyboard-response,358,316609,0.0-11.0-2.0,,<div class = centerbox><div class = fixation>+</div></div>,,test_fixation,500.0,,test,7.0,500.0,,,,,,,,,,,,
359,,html-keyboard-response,359,318117,0.0-11.0-3.0,323.0,<div class = bigbox><div class = centerbox><div class = gng_number><div class = cue-text><img class = center src='/static/experiments/n_back_rdoc/images/lowercase_D.png'></img></div></div></div></div>,",",test_trial,1500.0,,test,7.0,1000.0,"['.', ',']",N/A,d,",",1.0,lowercase,1,,,,,
360,,html-keyboard-response,360,318471,0.0-11.0-4.0,,<div class = centerbox><div class = fixation>+</div></div>,,test_ITI,348.3441678327472,,test,7.0,348.3441678327472,,,,,,,,"{'min': 0, 'max': 5, 'mean': 0.5}",,,,
361,,html-keyboard-response,361,318974,0.0-11.0-5.0,,<div class = centerbox><div class = fixation>+</div></div>,,test_fixation,500.0,,test,7.0,500.0,,,,,,,,,,,,
362,,html-keyboard-response,362,320478,0.0-11.0-6.0,,<div class = bigbox><div class = centerbox><div class = gng_number><div class = cue-text><img class = center src='/static/experiments/n_back_rdoc/images/uppercase_T.png'></img></div></div></div></div>,,test_trial,1500.0,,test,7.0,1000.0,"['.', ',']",mismatch,T,",",1.0,uppercase,0,,,,,
363,,html-keyboard-response,363,320978,0.0-11.0-7.0,,<div class = centerbox><div class = fixation>+</div></div>,,test_ITI,497.7672963856549,,test,7.0,497.7672963856549,,,,,,,,"{'min': 0, 'max': 5, 'mean': 0.5}",,,,
364,,html-keyboard-response,364,321480,0.0-11.0-8.0,,<div class = centerbox><div class = fixation>+</div></div>,,test_fixation,500.0,,test,7.0,500.0,,,,,,,,,,,,
365,,html-keyboard-response,365,322989,0.0-11.0-9.0,,<div class = bigbox><div class = centerbox><div class = gng_number><div class = cue-text><img class = center src='/static/experiments/n_back_rdoc/images/uppercase_G.png'></img></div></div></div></div>,,test_trial,1500.0,,test,7.0,1000.0,"['.', ',']",mismatch,G,",",1.0,uppercase,0,,,,,
366,,html-keyboard-response,366,323105,0.0-11.0-10.0,,<div class = centerbox><div class = fixation>+</div></div>,,test_ITI,110.94434465624416,,test,7.0,110.94434465624416,,,,,,,,"{'min': 0, 'max': 5, 'mean': 0.5}",,,,
367,,html-keyboard-response,367,323612,0.0-11.0-11.0,,<div class = centerbox><div class = fixation>+</div></div>,,test_fixation,500.0,,test,7.0,500.0,,,,,,,,,,,,
368,,html-keyboard-response,368,325120,0.0-11.0-12.0,,<div class = bigbox><div class = centerbox><div class = gng_number><div class = cue-text><img class = center src='/static/experiments/n_back_rdoc/images/lowercase_D.png'></img></div></div></div></div>,,test_trial,1500.0,,test,7.0,1000.0,"['.', ',']",mismatch,d,",",1.0,lowercase,0,,,,,
369,,html-keyboard-response,369,325660,0.0-11.0-13.0,,<div class = centerbox><div class = fixation>+</div></div>,,test_ITI,538.2155473202521,,test,7.0,538.2155473202521,,,,,,,,"{'min': 0, 'max': 5, 'mean': 0.5}",,,,
370,,html-keyboard-response,370,326165,0.0-11.0-14.0,,<div class = centerbox><div class = fixation>+</div></div>,,test_fixation,500.0,,test,7.0,500.0,,,,,,,,,,,,
371,,html-keyboard-response,371,327672,0.0-11.0-15.0,,<div class = bigbox><div class = centerbox><div class = gng_number><div class = cue-text><img class = center src='/static/experiments/n_back_rdoc/images/uppercase_V.png'></img></div></div></div></div>,,test_trial,1500.0,,test,7.0,1000.0,"['.', ',']",mismatch,V,",",1.0,uppercase,0,,,,,
372,,html-keyboard-response,372,328024,0.0-11.0-16.0,,<div class = centerbox><div class = fixation>+</div></div>,,test_ITI,346.07219693030606,,test,7.0,346.07219693030606,,,,,,,,"{'min': 0, 'max': 5, 'mean': 0.5}",,,,
373,,html-keyboard-response,373,328527,0.0-11.0-17.0,,<div class = centerbox><div class = fixation>+</div></div>,,test_fixation,500.0,,test,7.0,500.0,,,,,,,,,,,,
374,,html-keyboard-response,374,330035,0.0-11.0-18.0,,<div class = bigbox><div class = centerbox><div class = gng_number><div class = cue-text><img class = center src='/static/experiments/n_back_rdoc/images/uppercase_D.png'></img></div></div></div></div>,,test_trial,1500.0,,test,7.0,1000.0,"['.', ',']",mismatch,D,",",1.0,uppercase,0,,,,,
375,,html-keyboard-response,375,330298,0.0-11.0-19.0,,<div class = centerbox><div class = fixation>+</div></div>,,test_ITI,256.4671859497786,,test,7.0,256.4671859497786,,,,,,,,"{'min': 0, 'max': 5, 'mean': 0.5}",,,,
376,,html-keyboard-response,376,330802,0.0-11.0-20.0,,<div class = centerbox><div class = fixation>+</div></div>,,test_fixation,500.0,,test,7.0,500.0,,,,,,,,,,,,
377,,html-keyboard-response,377,332308,0.0-11.0-21.0,,<div class = bigbox><div class = centerbox><div class = gng_number><div class = cue-text><img class = center src='/static/experiments/n_back_rdoc/images/uppercase_T.png'></img></div></div></div></div>,,test_trial,1500.0,,test,7.0,1000.0,"['.', ',']",mismatch,T,",",1.0,uppercase,0,,,,,
378,,html-keyboard-response,378,334055,0.0-11.0-22.0,,<div class = centerbox><div class = fixation>+</div></div>,,test_ITI,1742.1739118199414,,test,7.0,1742.1739118199414,,,,,,,,"{'min': 0, 'max': 5, 'mean': 0.5}",,,,
379,,html-keyboard-response,379,334559,0.0-11.0-23.0,,<div class = centerbox><div class = fixation>+</div></div>,,test_fixation,500.0,,test,7.0,500.0,,,,,,,,,,,,
380,,html-keyboard-response,380,336067,0.0-11.0-24.0,,<div class = bigbox><div class = centerbox><div class = gng_number><div class = cue-text><img class = center src='/static/experiments/n_back_rdoc/images/lowercase_T.png'></img></div></div></div></div>,,test_trial,1500.0,,test,7.0,1000.0,"['.', ',']",match,t,.,1.0,lowercase,0,,,,,
381,,html-keyboard-response,381,337086,0.0-11.0-25.0,,<div class = centerbox><div class = fixation>+</div></div>,,test_ITI,1012.0657144912484,,test,7.0,1012.0657144912484,,,,,,,,"{'min': 0, 'max': 5, 'mean': 0.5}",,,,
382,,html-keyboard-response,382,337590,0.0-11.0-26.0,,<div class = centerbox><div class = fixation>+</div></div>,,test_fixation,500.0,,test,7.0,500.0,,,,,,,,,,,,
383,,html-keyboard-response,383,339097,0.0-11.0-27.0,,<div class = bigbox><div class = centerbox><div class = gng_number><div class = cue-text><img class = center src='/static/experiments/n_back_rdoc/images/lowercase_D.png'></img></div></div></div></div>,,test_trial,1500.0,,test,7.0,1000.0,"['.', ',']",mismatch,d,",",1.0,lowercase,0,,,,,
384,,html-keyboard-response,384,339665,0.0-11.0-28.0,,<div class = centerbox><div class = fixation>+</div></div>,,test_ITI,562.970928264225,,test,7.0,562.970928264225,,,,,,,,"{'min': 0, 'max': 5, 'mean': 0.5}",,,,
385,,html-keyboard-response,385,340168,0.0-11.0-29.0,,<div class = centerbox><div class = fixation>+</div></div>,,test_fixation,500.0,,test,7.0,500.0,,,,,,,,,,,,
386,,html-keyboard-response,386,341671,0.0-11.0-30.0,,<div class = bigbox><div class = centerbox><div class = gng_number><div class = cue-text><img class = center src='/static/experiments/n_back_rdoc/images/lowercase_D.png'></img></div></div></div></div>,,test_trial,1500.0,,test,7.0,1000.0,"['.', ',']",match,d,.,1.0,lowercase,0,,,,,
387,,html-keyboard-response,387,341812,0.0-11.0-31.0,,<div class = centerbox><div class = fixation>+</div></div>,,test_ITI,134.6657452667849,,test,7.0,134.6657452667849,,,,,,,,"{'min': 0, 'max': 5, 'mean': 0.5}",,,,
388,,html-keyboard-response,388,342317,0.0-11.0-32.0,,<div class = centerbox><div class = fixation>+</div></div>,,test_fixation,500.0,,test,7.0,500.0,,,,,,,,,,,,
389,,html-keyboard-response,389,343825,0.0-11.0-33.0,,<div class = bigbox><div class = centerbox><div class = gng_number><div class = cue-text><img class = center src='/static/experiments/n_back_rdoc/images/lowercase_G.png'></img></div></div></div></div>,,test_trial,1500.0,,test,7.0,1000.0,"['.', ',']",mismatch,g,",",1.0,lowercase,0,,,,,
390,,html-keyboard-response,390,344852,0.0-11.0-34.0,,<div class = centerbox><div class = fixation>+</div></div>,,test_ITI,1022.0878503131745,,test,7.0,1022.0878503131745,,,,,,,,"{'min': 0, 'max': 5, 'mean': 0.5}",,,,
391,,html-keyboard-response,391,345357,0.0-11.0-35.0,,<div class = centerbox><div class = fixation>+</div></div>,,test_fixation,500.0,,test,7.0,500.0,,,,,,,,,,,,
