,success,trial_type,trial_index,time_elapsed,internal_node_id,rt,stimulus,response,trial_id,trial_duration,view_history,exp_stage,block_num,condition,choices,stimulus_duration,correct_spatial_judgement_key,num_block,spatial_location,correct_trial,spatial_sequence,rt_each_spatial_location_response_grid,rt_total_response_grid,ITIParams,current_question,current_key_answer,exp_id,attention_check_percent
0,True,fullscreen,0,1738,0.0-0.0,,,,,,,,,,,,,,,,,,,,,,,
1,,html-keyboard-response,1,1869,0.0-1.0-0.0,128.0,"<div class = centerbox><p class = center-block-text>
    
  <p class=""center-block-text"">
    Welcome! This experiment will take around 24 minutes.
  </p>
  <p class=""center-block-text"">
    To avoid technical issues, please keep the experiment tab (on Chrome or Firefox) active and in fullscreen mode for the whole duration of each task.
  </p>
  <p class=""center-block-text""> Press <i>enter</i> to begin.</p>

    </p></div>",enter,instruction_feedback,180000.0,,,,,,,,,,,,,,,,,,
2,,instructions,2,3380,0.0-1.0-1.0,1510.0,,,instructions,,"[{'page_index': 0, 'viewing_time': 1104}, {'page_index': 1, 'viewing_time': 405}]",,,,,,,,,,,,,,,,,
3,,html-keyboard-response,3,3940,0.0-2.0-0.0,558.0,"<div class = bigbox><div class = picture_box><p class = block-text>
    <div class = centerbox><p class = center-block-text>Press <i>enter</i> to begin practice.</p></div>
    </font></p></div></div>",enter,practice_feedback,60000.0,,practice,0.0,,,,,,,,,,,,,,,
4,,html-keyboard-response,4,6948,0.0-2.0-1.0-0.0,,<div class = centerbox><div class = fixation>****</div></div>,,practice_inter-stimulus,3000.0,,practice,0.0,simple,,3000.0,,0.0,,,,,,,,,,
5,,html-keyboard-response,5,7956,0.0-2.0-2.0,,"<div class=""container""><div class=""box""></div><div class=""box""></div><div class=""box active-box""></div><div class=""box""></div><div class=""box""></div><div class=""box""></div><div class=""box""></div><div class=""box""></div><div class=""box""></div><div class=""box""></div><div class=""box""></div><div class=""box""></div><div class=""box""></div><div class=""box""></div><div class=""box""></div><div class=""box""></div></div>",,practice_stim,1000.0,,practice,0.0,simple,,1000.0,,0.0,2.0,,,,,,,,,
6,,html-keyboard-response,6,10963,0.0-2.0-3.0-0.0,,<div class = centerbox><div class = fixation>****</div></div>,,practice_inter-stimulus,3000.0,,practice,0.0,simple,,3000.0,,0.0,,,,,,,,,,
7,,html-keyboard-response,7,11966,0.0-2.0-4.0,,"<div class=""container""><div class=""box""></div><div class=""box""></div><div class=""box""></div><div class=""box""></div><div class=""box""></div><div class=""box""></div><div class=""box""></div><div class=""box""></div><div class=""box active-box""></div><div class=""box""></div><div class=""box""></div><div class=""box""></div><div class=""box""></div><div class=""box""></div><div class=""box""></div><div class=""box""></div></div>",,practice_stim,1000.0,,practice,0.0,simple,,1000.0,,0.0,8.0,,,,,,,,,
8,,html-keyboard-response,8,14968,0.0-2.0-5.0-0.0,,<div class = centerbox><div class = fixation>****</div></div>,,practice_inter-stimulus,3000.0,,practice,0.0,simple,,3000.0,,0.0,,,,,,,,,,
9,,html-keyboard-response,9,15970,0.0-2.0-6.0,,"<div class=""container""><div class=""box""></div><div class=""box""></div><div class=""box""></div><div class=""box""></div><div class=""box""></div><div class=""box""></div><div class=""box""></div><div class=""box""></div><div class=""box""></div><div class=""box""></div><div class=""box""></div><div class=""box active-box""></div><div class=""box""></div><div class=""box""></div><div class=""box""></div><div class=""box""></div></div>",,practice_stim,1000.0,,practice,0.0,simple,,1000.0,,0.0,11.0,,,,,,,,,
10,,html-keyboard-response,10,18977,0.0-2.0-7.0-0.0,,<div class = centerbox><div class = fixation>****</div></div>,,practice_inter-stimulus,3000.0,,practice,0.0,simple,,3000.0,,0.0,,,,,,,,,,
11,,html-keyboard-response,11,19978,0.0-2.0-8.0,,"<div class=""container""><div class=""box""></div><div class=""box""></div><div class=""box""></div><div class=""box""></div><div class=""box""></div><div class=""box""></div><div class=""box""></div><div class=""box""></div><div class=""box""></div><div class=""box""></div><div class=""box""></div><div class=""box active-box""></div><div class=""box""></div><div class=""box""></div><div class=""box""></div><div class=""box""></div></div>",,practice_stim,1000.0,,practice,0.0,simple,,1000.0,,0.0,11.0,,,,,,,,,
12,,html-keyboard-response,12,24981,0.0-2.0-9.0,,"<div class=""container""><div class=""box""></div><div class=""box""></div><div class=""box""></div><div class=""box""></div><div class=""box""></div><div class=""box response-active""></div><div class=""box""></div><div class=""box""></div><div class=""box""></div><div class=""box""></div><div class=""box""></div><div class=""box""></div><div class=""box""></div><div class=""box""></div><div class=""box""></div><div class=""box""></div></div>","[2, 8, 11, 11]",practice_response,5000.0,,practice,0.0,simple,['NO_KEYS'],5000.0,,,,1,"[2, 8, 11, 11]","[583, 949, 951, 254]",2737.0,,,,,
13,,html-keyboard-response,13,25490,0.0-2.0-10.0,,<div class = fb_box><div class = 'center-text'><font size =20>Correct!</font></div></div>,,practice_feedback,500.0,,practice,,,,500.0,,0.0,,,,,,,,,,
14,,html-keyboard-response,14,30382,0.0-2.0-11.0,,<div class = centerbox><div class = fixation>+</div></div>,,practice_ITI,4885.5305777949025,,practice,0.0,,,4885.5305777949025,,,,,,,,"{'min': 2, 'max': 20, 'mean': 5}",,,,
15,,html-keyboard-response,15,32611,0.0-3.0-0.0,2226.0,"<div class = bigbox><div class = picture_box><p class = block-text>
    <div class = centerbox><p class = center-block-text>We will now start the test portion.</p><p class=""block-text"">Keep your fingers on the arrow keys.</p><p class = block-text>Press <i>enter</i> to continue.</p></div>
    </font></p></div></div>",enter,test_feedback,60000.0,,test,0.0,,,,,,,,,,,,,,,
16,,html-keyboard-response,16,33468,0.0-3.0-1.0-0.0,855.0,,l,test_attention_check,,,test,0.0,,,,,,,True,,,,,<p class='block-text'>Press the L key</p> <div class=block-text>This screen will advance automatically in 1 minute.</div>,76.0,,
17,,html-keyboard-response,17,36474,0.0-3.0-2.0-0.0,,<div class = centerbox><div class = fixation>****</div></div>,,test_inter-stimulus,3000.0,,test,0.0,simple,,3000.0,,0.0,,,,,,,,,,
18,,html-keyboard-response,18,37481,0.0-3.0-3.0,,"<div class=""container""><div class=""box""></div><div class=""box""></div><div class=""box""></div><div class=""box""></div><div class=""box""></div><div class=""box""></div><div class=""box""></div><div class=""box active-box""></div><div class=""box""></div><div class=""box""></div><div class=""box""></div><div class=""box""></div><div class=""box""></div><div class=""box""></div><div class=""box""></div><div class=""box""></div></div>",,test_stim,1000.0,,test,0.0,simple,,1000.0,,0.0,7.0,,,,,,,,,
19,,html-keyboard-response,19,40488,0.0-3.0-4.0-0.0,,<div class = centerbox><div class = fixation>****</div></div>,,test_inter-stimulus,3000.0,,test,0.0,simple,,3000.0,,0.0,,,,,,,,,,
20,,html-keyboard-response,20,41493,0.0-3.0-5.0,,"<div class=""container""><div class=""box""></div><div class=""box""></div><div class=""box""></div><div class=""box""></div><div class=""box""></div><div class=""box""></div><div class=""box""></div><div class=""box""></div><div class=""box""></div><div class=""box""></div><div class=""box""></div><div class=""box""></div><div class=""box active-box""></div><div class=""box""></div><div class=""box""></div><div class=""box""></div></div>",,test_stim,1000.0,,test,0.0,simple,,1000.0,,0.0,12.0,,,,,,,,,
21,,html-keyboard-response,21,44500,0.0-3.0-6.0-0.0,,<div class = centerbox><div class = fixation>****</div></div>,,test_inter-stimulus,3000.0,,test,0.0,simple,,3000.0,,0.0,,,,,,,,,,
22,,html-keyboard-response,22,45507,0.0-3.0-7.0,,"<div class=""container""><div class=""box""></div><div class=""box""></div><div class=""box""></div><div class=""box""></div><div class=""box""></div><div class=""box""></div><div class=""box active-box""></div><div class=""box""></div><div class=""box""></div><div class=""box""></div><div class=""box""></div><div class=""box""></div><div class=""box""></div><div class=""box""></div><div class=""box""></div><div class=""box""></div></div>",,test_stim,1000.0,,test,0.0,simple,,1000.0,,0.0,6.0,,,,,,,,,
23,,html-keyboard-response,23,48513,0.0-3.0-8.0-0.0,,<div class = centerbox><div class = fixation>****</div></div>,,test_inter-stimulus,3000.0,,test,0.0,simple,,3000.0,,0.0,,,,,,,,,,
24,,html-keyboard-response,24,49517,0.0-3.0-9.0,,"<div class=""container""><div class=""box""></div><div class=""box""></div><div class=""box""></div><div class=""box""></div><div class=""box""></div><div class=""box""></div><div class=""box""></div><div class=""box""></div><div class=""box""></div><div class=""box active-box""></div><div class=""box""></div><div class=""box""></div><div class=""box""></div><div class=""box""></div><div class=""box""></div><div class=""box""></div></div>",,test_stim,1000.0,,test,0.0,simple,,1000.0,,0.0,9.0,,,,,,,,,
25,,html-keyboard-response,25,54524,0.0-3.0-10.0,,"<div class=""container""><div class=""box""></div><div class=""box""></div><div class=""box""></div><div class=""box""></div><div class=""box""></div><div class=""box""></div><div class=""box""></div><div class=""box""></div><div class=""box response-active""></div><div class=""box""></div><div class=""box""></div><div class=""box""></div><div class=""box""></div><div class=""box""></div><div class=""box""></div><div class=""box""></div></div>",[],test_response,5000.0,,test,0.0,simple,['NO_KEYS'],5000.0,,,,,"[7, 12, 6, 9]",[],0.0,,,,,
26,,html-keyboard-response,26,56941,0.0-3.0-11.0,,<div class = centerbox><div class = fixation>+</div></div>,,test_ITI,2411.079861054603,,test,0.0,,,2411.079861054603,,,,,,,,"{'min': 2, 'max': 20, 'mean': 5}",,,,
27,,html-keyboard-response,27,59948,0.0-3.0-12.0-0.0,,<div class = centerbox><div class = fixation>****</div></div>,,test_inter-stimulus,3000.0,,test,0.0,simple,,3000.0,,0.0,,,,,,,,,,
28,,html-keyboard-response,28,60954,0.0-3.0-13.0,,"<div class=""container""><div class=""box active-box""></div><div class=""box""></div><div class=""box""></div><div class=""box""></div><div class=""box""></div><div class=""box""></div><div class=""box""></div><div class=""box""></div><div class=""box""></div><div class=""box""></div><div class=""box""></div><div class=""box""></div><div class=""box""></div><div class=""box""></div><div class=""box""></div><div class=""box""></div></div>",,test_stim,1000.0,,test,0.0,simple,,1000.0,,0.0,0.0,,,,,,,,,
29,,html-keyboard-response,29,63960,0.0-3.0-14.0-0.0,,<div class = centerbox><div class = fixation>****</div></div>,,test_inter-stimulus,3000.0,,test,0.0,simple,,3000.0,,0.0,,,,,,,,,,
30,,html-keyboard-response,30,64966,0.0-3.0-15.0,,"<div class=""container""><div class=""box""></div><div class=""box""></div><div class=""box active-box""></div><div class=""box""></div><div class=""box""></div><div class=""box""></div><div class=""box""></div><div class=""box""></div><div class=""box""></div><div class=""box""></div><div class=""box""></div><div class=""box""></div><div class=""box""></div><div class=""box""></div><div class=""box""></div><div class=""box""></div></div>",,test_stim,1000.0,,test,0.0,simple,,1000.0,,0.0,2.0,,,,,,,,,
31,,html-keyboard-response,31,67973,0.0-3.0-16.0-0.0,,<div class = centerbox><div class = fixation>****</div></div>,,test_inter-stimulus,3000.0,,test,0.0,simple,,3000.0,,0.0,,,,,,,,,,
32,,html-keyboard-response,32,68980,0.0-3.0-17.0,,"<div class=""container""><div class=""box""></div><div class=""box""></div><div class=""box""></div><div class=""box""></div><div class=""box""></div><div class=""box""></div><div class=""box""></div><div class=""box""></div><div class=""box""></div><div class=""box""></div><div class=""box""></div><div class=""box active-box""></div><div class=""box""></div><div class=""box""></div><div class=""box""></div><div class=""box""></div></div>",,test_stim,1000.0,,test,0.0,simple,,1000.0,,0.0,11.0,,,,,,,,,
33,,html-keyboard-response,33,71987,0.0-3.0-18.0-0.0,,<div class = centerbox><div class = fixation>****</div></div>,,test_inter-stimulus,3000.0,,test,0.0,simple,,3000.0,,0.0,,,,,,,,,,
34,,html-keyboard-response,34,72991,0.0-3.0-19.0,,"<div class=""container""><div class=""box""></div><div class=""box""></div><div class=""box""></div><div class=""box""></div><div class=""box""></div><div class=""box""></div><div class=""box""></div><div class=""box""></div><div class=""box""></div><div class=""box""></div><div class=""box""></div><div class=""box""></div><div class=""box""></div><div class=""box""></div><div class=""box active-box""></div><div class=""box""></div></div>",,test_stim,1000.0,,test,0.0,simple,,1000.0,,0.0,14.0,,,,,,,,,
35,,html-keyboard-response,35,77994,0.0-3.0-20.0,,"<div class=""container""><div class=""box""></div><div class=""box response-active""></div><div class=""box""></div><div class=""box""></div><div class=""box""></div><div class=""box""></div><div class=""box""></div><div class=""box""></div><div class=""box""></div><div class=""box""></div><div class=""box""></div><div class=""box""></div><div class=""box""></div><div class=""box""></div><div class=""box""></div><div class=""box""></div></div>",[],test_response,5000.0,,test,0.0,simple,['NO_KEYS'],5000.0,,,,,"[0, 2, 11, 14]",[],0.0,,,,,
36,,html-keyboard-response,36,80307,0.0-3.0-21.0,,<div class = centerbox><div class = fixation>+</div></div>,,test_ITI,2308.2719074894894,,test,0.0,,,2308.2719074894894,,,,,,,,"{'min': 2, 'max': 20, 'mean': 5}",,,,
37,,html-keyboard-response,37,83313,0.0-3.0-22.0-0.0,,<div class = centerbox><div class = fixation>****</div></div>,,test_inter-stimulus,3000.0,,test,0.0,simple,,3000.0,,0.0,,,,,,,,,,
38,,html-keyboard-response,38,84320,0.0-3.0-23.0,,"<div class=""container""><div class=""box""></div><div class=""box active-box""></div><div class=""box""></div><div class=""box""></div><div class=""box""></div><div class=""box""></div><div class=""box""></div><div class=""box""></div><div class=""box""></div><div class=""box""></div><div class=""box""></div><div class=""box""></div><div class=""box""></div><div class=""box""></div><div class=""box""></div><div class=""box""></div></div>",,test_stim,1000.0,,test,0.0,simple,,1000.0,,0.0,1.0,,,,,,,,,
39,,html-keyboard-response,39,87325,0.0-3.0-24.0-0.0,,<div class = centerbox><div class = fixation>****</div></div>,,test_inter-stimulus,3000.0,,test,0.0,simple,,3000.0,,0.0,,,,,,,,,,
40,,html-keyboard-response,40,88332,0.0-3.0-25.0,,"<div class=""container""><div class=""box""></div><div class=""box""></div><div class=""box""></div><div class=""box""></div><div class=""box""></div><div class=""box""></div><div class=""box""></div><div class=""box""></div><div class=""box""></div><div class=""box""></div><div class=""box""></div><div class=""box active-box""></div><div class=""box""></div><div class=""box""></div><div class=""box""></div><div class=""box""></div></div>",,test_stim,1000.0,,test,0.0,simple,,1000.0,,0.0,11.0,,,,,,,,,
41,,html-keyboard-response,41,91339,0.0-3.0-26.0-0.0,,<div class = centerbox><div class = fixation>****</div></div>,,test_inter-stimulus,3000.0,,test,0.0,simple,,3000.0,,0.0,,,,,,,,,,
42,,html-keyboard-response,42,92346,0.0-3.0-27.0,,"<div class=""container""><div class=""box""></div><div class=""box""></div><div class=""box active-box""></div><div class=""box""></div><div class=""box""></div><div class=""box""></div><div class=""box""></div><div class=""box""></div><div class=""box""></div><div class=""box""></div><div class=""box""></div><div class=""box""></div><div class=""box""></div><div class=""box""></div><div class=""box""></div><div class=""box""></div></div>",,test_stim,1000.0,,test,0.0,simple,,1000.0,,0.0,2.0,,,,,,,,,
43,,html-keyboard-response,43,95353,0.0-3.0-28.0-0.0,,<div class = centerbox><div class = fixation>****</div></div>,,test_inter-stimulus,3000.0,,test,0.0,simple,,3000.0,,0.0,,,,,,,,,,
44,,html-keyboard-response,44,96357,0.0-3.0-29.0,,"<div class=""container""><div class=""box""></div><div class=""box""></div><div class=""box""></div><div class=""box""></div><div class=""box active-box""></div><div class=""box""></div><div class=""box""></div><div class=""box""></div><div class=""box""></div><div class=""box""></div><div class=""box""></div><div class=""box""></div><div class=""box""></div><div class=""box""></div><div class=""box""></div><div class=""box""></div></div>",,test_stim,1000.0,,test,0.0,simple,,1000.0,,0.0,4.0,,,,,,,,,
45,,html-keyboard-response,45,101364,0.0-3.0-30.0,,"<div class=""container""><div class=""box""></div><div class=""box""></div><div class=""box""></div><div class=""box""></div><div class=""box""></div><div class=""box""></div><div class=""box""></div><div class=""box response-active""></div><div class=""box""></div><div class=""box""></div><div class=""box""></div><div class=""box""></div><div class=""box""></div><div class=""box""></div><div class=""box""></div><div class=""box""></div></div>",[],test_response,5000.0,,test,0.0,simple,['NO_KEYS'],5000.0,,,,,"[1, 11, 2, 4]",[],0.0,,,,,
46,,html-keyboard-response,46,104327,0.0-3.0-31.0,,<div class = centerbox><div class = fixation>+</div></div>,,test_ITI,2957.109356006612,,test,0.0,,,2957.109356006612,,,,,,,,"{'min': 2, 'max': 20, 'mean': 5}",,,,
47,,html-keyboard-response,47,107331,0.0-3.0-32.0-0.0,,<div class = centerbox><div class = fixation>****</div></div>,,test_inter-stimulus,3000.0,,test,0.0,simple,,3000.0,,0.0,,,,,,,,,,
48,,html-keyboard-response,48,108338,0.0-3.0-33.0,,"<div class=""container""><div class=""box""></div><div class=""box""></div><div class=""box""></div><div class=""box""></div><div class=""box""></div><div class=""box""></div><div class=""box""></div><div class=""box""></div><div class=""box""></div><div class=""box active-box""></div><div class=""box""></div><div class=""box""></div><div class=""box""></div><div class=""box""></div><div class=""box""></div><div class=""box""></div></div>",,test_stim,1000.0,,test,0.0,simple,,1000.0,,0.0,9.0,,,,,,,,,
49,,html-keyboard-response,49,111343,0.0-3.0-34.0-0.0,,<div class = centerbox><div class = fixation>****</div></div>,,test_inter-stimulus,3000.0,,test,0.0,simple,,3000.0,,0.0,,,,,,,,,,
50,,html-keyboard-response,50,112348,0.0-3.0-35.0,,"<div class=""container""><div class=""box""></div><div class=""box""></div><div class=""box""></div><div class=""box""></div><div class=""box""></div><div class=""box""></div><div class=""box""></div><div class=""box active-box""></div><div class=""box""></div><div class=""box""></div><div class=""box""></div><div class=""box""></div><div class=""box""></div><div class=""box""></div><div class=""box""></div><div class=""box""></div></div>",,test_stim,1000.0,,test,0.0,simple,,1000.0,,0.0,7.0,,,,,,,,,
51,,html-keyboard-response,51,115353,0.0-3.0-36.0-0.0,,<div class = centerbox><div class = fixation>****</div></div>,,test_inter-stimulus,3000.0,,test,0.0,simple,,3000.0,,0.0,,,,,,,,,,
52,,html-keyboard-response,52,116360,0.0-3.0-37.0,,"<div class=""container""><div class=""box""></div><div class=""box""></div><div class=""box""></div><div class=""box""></div><div class=""box active-box""></div><div class=""box""></div><div class=""box""></div><div class=""box""></div><div class=""box""></div><div class=""box""></div><div class=""box""></div><div class=""box""></div><div class=""box""></div><div class=""box""></div><div class=""box""></div><div class=""box""></div></div>",,test_stim,1000.0,,test,0.0,simple,,1000.0,,0.0,4.0,,,,,,,,,
53,,html-keyboard-response,53,119364,0.0-3.0-38.0-0.0,,<div class = centerbox><div class = fixation>****</div></div>,,test_inter-stimulus,3000.0,,test,0.0,simple,,3000.0,,0.0,,,,,,,,,,
54,,html-keyboard-response,54,120367,0.0-3.0-39.0,,"<div class=""container""><div class=""box""></div><div class=""box""></div><div class=""box""></div><div class=""box""></div><div class=""box active-box""></div><div class=""box""></div><div class=""box""></div><div class=""box""></div><div class=""box""></div><div class=""box""></div><div class=""box""></div><div class=""box""></div><div class=""box""></div><div class=""box""></div><div class=""box""></div><div class=""box""></div></div>",,test_stim,1000.0,,test,0.0,simple,,1000.0,,0.0,4.0,,,,,,,,,
55,,html-keyboard-response,55,125373,0.0-3.0-40.0,,"<div class=""container""><div class=""box""></div><div class=""box""></div><div class=""box""></div><div class=""box""></div><div class=""box""></div><div class=""box""></div><div class=""box""></div><div class=""box""></div><div class=""box""></div><div class=""box""></div><div class=""box""></div><div class=""box""></div><div class=""box""></div><div class=""box response-active""></div><div class=""box""></div><div class=""box""></div></div>",[],test_response,5000.0,,test,0.0,simple,['NO_KEYS'],5000.0,,,,,"[9, 7, 4, 4]",[],0.0,,,,,
56,,html-keyboard-response,56,141748,0.0-3.0-41.0,,<div class = centerbox><div class = fixation>+</div></div>,,test_ITI,16369.916635274474,,test,0.0,,,16369.916635274474,,,,,,,,"{'min': 2, 'max': 20, 'mean': 5}",,,,
57,,html-keyboard-response,57,144755,0.0-3.0-42.0-0.0,,<div class = centerbox><div class = fixation>****</div></div>,,test_inter-stimulus,3000.0,,test,0.0,simple,,3000.0,,0.0,,,,,,,,,,
58,,html-keyboard-response,58,145761,0.0-3.0-43.0,,"<div class=""container""><div class=""box""></div><div class=""box""></div><div class=""box""></div><div class=""box""></div><div class=""box""></div><div class=""box active-box""></div><div class=""box""></div><div class=""box""></div><div class=""box""></div><div class=""box""></div><div class=""box""></div><div class=""box""></div><div class=""box""></div><div class=""box""></div><div class=""box""></div><div class=""box""></div></div>",,test_stim,1000.0,,test,0.0,simple,,1000.0,,0.0,5.0,,,,,,,,,
59,,html-keyboard-response,59,148767,0.0-3.0-44.0-0.0,,<div class = centerbox><div class = fixation>****</div></div>,,test_inter-stimulus,3000.0,,test,0.0,simple,,3000.0,,0.0,,,,,,,,,,
60,,html-keyboard-response,60,149772,0.0-3.0-45.0,,"<div class=""container""><div class=""box""></div><div class=""box""></div><div class=""box""></div><div class=""box""></div><div class=""box""></div><div class=""box""></div><div class=""box""></div><div class=""box""></div><div class=""box""></div><div class=""box""></div><div class=""box""></div><div class=""box""></div><div class=""box""></div><div class=""box""></div><div class=""box active-box""></div><div class=""box""></div></div>",,test_stim,1000.0,,test,0.0,simple,,1000.0,,0.0,14.0,,,,,,,,,
61,,html-keyboard-response,61,152773,0.0-3.0-46.0-0.0,,<div class = centerbox><div class = fixation>****</div></div>,,test_inter-stimulus,3000.0,,test,0.0,simple,,3000.0,,0.0,,,,,,,,,,
62,,html-keyboard-response,62,153778,0.0-3.0-47.0,,"<div class=""container""><div class=""box""></div><div class=""box""></div><div class=""box""></div><div class=""box""></div><div class=""box""></div><div class=""box""></div><div class=""box active-box""></div><div class=""box""></div><div class=""box""></div><div class=""box""></div><div class=""box""></div><div class=""box""></div><div class=""box""></div><div class=""box""></div><div class=""box""></div><div class=""box""></div></div>",,test_stim,1000.0,,test,0.0,simple,,1000.0,,0.0,6.0,,,,,,,,,
63,,html-keyboard-response,63,156780,0.0-3.0-48.0-0.0,,<div class = centerbox><div class = fixation>****</div></div>,,test_inter-stimulus,3000.0,,test,0.0,simple,,3000.0,,0.0,,,,,,,,,,
64,,html-keyboard-response,64,157785,0.0-3.0-49.0,,"<div class=""container""><div class=""box""></div><div class=""box""></div><div class=""box""></div><div class=""box""></div><div class=""box""></div><div class=""box""></div><div class=""box""></div><div class=""box""></div><div class=""box""></div><div class=""box""></div><div class=""box""></div><div class=""box active-box""></div><div class=""box""></div><div class=""box""></div><div class=""box""></div><div class=""box""></div></div>",,test_stim,1000.0,,test,0.0,simple,,1000.0,,0.0,11.0,,,,,,,,,
65,,html-keyboard-response,65,162788,0.0-3.0-50.0,,"<div class=""container""><div class=""box""></div><div class=""box""></div><div class=""box response-active""></div><div class=""box""></div><div class=""box""></div><div class=""box""></div><div class=""box""></div><div class=""box""></div><div class=""box""></div><div class=""box""></div><div class=""box""></div><div class=""box""></div><div class=""box""></div><div class=""box""></div><div class=""box""></div><div class=""box""></div></div>",[],test_response,5000.0,,test,0.0,simple,['NO_KEYS'],5000.0,,,,,"[5, 14, 6, 11]",[],0.0,,,,,
66,,html-keyboard-response,66,168392,0.0-3.0-51.0,,<div class = centerbox><div class = fixation>+</div></div>,,test_ITI,5600.592806918023,,test,0.0,,,5600.592806918023,,,,,,,,"{'min': 2, 'max': 20, 'mean': 5}",,,,
67,,html-keyboard-response,67,171396,0.0-3.0-52.0-0.0,,<div class = centerbox><div class = fixation>****</div></div>,,test_inter-stimulus,3000.0,,test,0.0,simple,,3000.0,,0.0,,,,,,,,,,
68,,html-keyboard-response,68,172400,0.0-3.0-53.0,,"<div class=""container""><div class=""box""></div><div class=""box""></div><div class=""box""></div><div class=""box""></div><div class=""box""></div><div class=""box active-box""></div><div class=""box""></div><div class=""box""></div><div class=""box""></div><div class=""box""></div><div class=""box""></div><div class=""box""></div><div class=""box""></div><div class=""box""></div><div class=""box""></div><div class=""box""></div></div>",,test_stim,1000.0,,test,0.0,simple,,1000.0,,0.0,5.0,,,,,,,,,
69,,html-keyboard-response,69,175403,0.0-3.0-54.0-0.0,,<div class = centerbox><div class = fixation>****</div></div>,,test_inter-stimulus,3000.0,,test,0.0,simple,,3000.0,,0.0,,,,,,,,,,
70,,html-keyboard-response,70,176406,0.0-3.0-55.0,,"<div class=""container""><div class=""box active-box""></div><div class=""box""></div><div class=""box""></div><div class=""box""></div><div class=""box""></div><div class=""box""></div><div class=""box""></div><div class=""box""></div><div class=""box""></div><div class=""box""></div><div class=""box""></div><div class=""box""></div><div class=""box""></div><div class=""box""></div><div class=""box""></div><div class=""box""></div></div>",,test_stim,1000.0,,test,0.0,simple,,1000.0,,0.0,0.0,,,,,,,,,
71,,html-keyboard-response,71,179412,0.0-3.0-56.0-0.0,,<div class = centerbox><div class = fixation>****</div></div>,,test_inter-stimulus,3000.0,,test,0.0,simple,,3000.0,,0.0,,,,,,,,,,
72,,html-keyboard-response,72,180417,0.0-3.0-57.0,,"<div class=""container""><div class=""box""></div><div class=""box""></div><div class=""box""></div><div class=""box""></div><div class=""box""></div><div class=""box""></div><div class=""box""></div><div class=""box""></div><div class=""box""></div><div class=""box""></div><div class=""box""></div><div class=""box""></div><div class=""box active-box""></div><div class=""box""></div><div class=""box""></div><div class=""box""></div></div>",,test_stim,1000.0,,test,0.0,simple,,1000.0,,0.0,12.0,,,,,,,,,
73,,html-keyboard-response,73,183421,0.0-3.0-58.0-0.0,,<div class = centerbox><div class = fixation>****</div></div>,,test_inter-stimulus,3000.0,,test,0.0,simple,,3000.0,,0.0,,,,,,,,,,
74,,html-keyboard-response,74,184425,0.0-3.0-59.0,,"<div class=""container""><div class=""box""></div><div class=""box""></div><div class=""box""></div><div class=""box""></div><div class=""box""></div><div class=""box""></div><div class=""box""></div><div class=""box active-box""></div><div class=""box""></div><div class=""box""></div><div class=""box""></div><div class=""box""></div><div class=""box""></div><div class=""box""></div><div class=""box""></div><div class=""box""></div></div>",,test_stim,1000.0,,test,0.0,simple,,1000.0,,0.0,7.0,,,,,,,,,
75,,html-keyboard-response,75,189428,0.0-3.0-60.0,,"<div class=""container""><div class=""box""></div><div class=""box response-active""></div><div class=""box""></div><div class=""box""></div><div class=""box""></div><div class=""box""></div><div class=""box""></div><div class=""box""></div><div class=""box""></div><div class=""box""></div><div class=""box""></div><div class=""box""></div><div class=""box""></div><div class=""box""></div><div class=""box""></div><div class=""box""></div></div>",[],test_response,5000.0,,test,0.0,simple,['NO_KEYS'],5000.0,,,,,"[5, 0, 12, 7]",[],0.0,,,,,
76,,html-keyboard-response,76,191466,0.0-3.0-61.0,,<div class = centerbox><div class = fixation>+</div></div>,,test_ITI,2031.5576805254784,,test,0.0,,,2031.5576805254784,,,,,,,,"{'min': 2, 'max': 20, 'mean': 5}",,,,
77,,html-keyboard-response,77,194471,0.0-3.0-62.0-0.0,,<div class = centerbox><div class = fixation>****</div></div>,,test_inter-stimulus,3000.0,,test,0.0,simple,,3000.0,,0.0,,,,,,,,,,
78,,html-keyboard-response,78,195478,0.0-3.0-63.0,,"<div class=""container""><div class=""box""></div><div class=""box""></div><div class=""box""></div><div class=""box""></div><div class=""box""></div><div class=""box""></div><div class=""box""></div><div class=""box""></div><div class=""box""></div><div class=""box""></div><div class=""box active-box""></div><div class=""box""></div><div class=""box""></div><div class=""box""></div><div class=""box""></div><div class=""box""></div></div>",,test_stim,1000.0,,test,0.0,simple,,1000.0,,0.0,10.0,,,,,,,,,
79,,html-keyboard-response,79,198486,0.0-3.0-64.0-0.0,,<div class = centerbox><div class = fixation>****</div></div>,,test_inter-stimulus,3000.0,,test,0.0,simple,,3000.0,,0.0,,,,,,,,,,
80,,html-keyboard-response,80,199493,0.0-3.0-65.0,,"<div class=""container""><div class=""box""></div><div class=""box""></div><div class=""box""></div><div class=""box""></div><div class=""box""></div><div class=""box""></div><div class=""box""></div><div class=""box active-box""></div><div class=""box""></div><div class=""box""></div><div class=""box""></div><div class=""box""></div><div class=""box""></div><div class=""box""></div><div class=""box""></div><div class=""box""></div></div>",,test_stim,1000.0,,test,0.0,simple,,1000.0,,0.0,7.0,,,,,,,,,
81,,html-keyboard-response,81,202498,0.0-3.0-66.0-0.0,,<div class = centerbox><div class = fixation>****</div></div>,,test_inter-stimulus,3000.0,,test,0.0,simple,,3000.0,,0.0,,,,,,,,,,
82,,html-keyboard-response,82,203503,0.0-3.0-67.0,,"<div class=""container""><div class=""box""></div><div class=""box""></div><div class=""box""></div><div class=""box""></div><div class=""box""></div><div class=""box""></div><div class=""box""></div><div class=""box""></div><div class=""box""></div><div class=""box""></div><div class=""box""></div><div class=""box""></div><div class=""box""></div><div class=""box active-box""></div><div class=""box""></div><div class=""box""></div></div>",,test_stim,1000.0,,test,0.0,simple,,1000.0,,0.0,13.0,,,,,,,,,
83,,html-keyboard-response,83,206507,0.0-3.0-68.0-0.0,,<div class = centerbox><div class = fixation>****</div></div>,,test_inter-stimulus,3000.0,,test,0.0,simple,,3000.0,,0.0,,,,,,,,,,
84,,html-keyboard-response,84,207510,0.0-3.0-69.0,,"<div class=""container""><div class=""box""></div><div class=""box""></div><div class=""box""></div><div class=""box""></div><div class=""box""></div><div class=""box active-box""></div><div class=""box""></div><div class=""box""></div><div class=""box""></div><div class=""box""></div><div class=""box""></div><div class=""box""></div><div class=""box""></div><div class=""box""></div><div class=""box""></div><div class=""box""></div></div>",,test_stim,1000.0,,test,0.0,simple,,1000.0,,0.0,5.0,,,,,,,,,
85,,html-keyboard-response,85,212518,0.0-3.0-70.0,,"<div class=""container""><div class=""box""></div><div class=""box""></div><div class=""box""></div><div class=""box""></div><div class=""box""></div><div class=""box""></div><div class=""box""></div><div class=""box""></div><div class=""box""></div><div class=""box""></div><div class=""box""></div><div class=""box""></div><div class=""box""></div><div class=""box""></div><div class=""box response-active""></div><div class=""box""></div></div>",[],test_response,5000.0,,test,0.0,simple,['NO_KEYS'],5000.0,,,,,"[10, 7, 13, 5]",[],0.0,,,,,
86,,html-keyboard-response,86,214667,0.0-3.0-71.0,,<div class = centerbox><div class = fixation>+</div></div>,,test_ITI,2142.4040818434933,,test,0.0,,,2142.4040818434933,,,,,,,,"{'min': 2, 'max': 20, 'mean': 5}",,,,
87,,html-keyboard-response,87,217674,0.0-3.0-72.0-0.0,,<div class = centerbox><div class = fixation>****</div></div>,,test_inter-stimulus,3000.0,,test,0.0,simple,,3000.0,,0.0,,,,,,,,,,
88,,html-keyboard-response,88,218680,0.0-3.0-73.0,,"<div class=""container""><div class=""box""></div><div class=""box""></div><div class=""box""></div><div class=""box""></div><div class=""box""></div><div class=""box""></div><div class=""box""></div><div class=""box""></div><div class=""box""></div><div class=""box""></div><div class=""box""></div><div class=""box""></div><div class=""box""></div><div class=""box""></div><div class=""box""></div><div class=""box active-box""></div></div>",,test_stim,1000.0,,test,0.0,simple,,1000.0,,0.0,15.0,,,,,,,,,
89,,html-keyboard-response,89,221685,0.0-3.0-74.0-0.0,,<div class = centerbox><div class = fixation>****</div></div>,,test_inter-stimulus,3000.0,,test,0.0,simple,,3000.0,,0.0,,,,,,,,,,
90,,html-keyboard-response,90,222692,0.0-3.0-75.0,,"<div class=""container""><div class=""box""></div><div class=""box""></div><div class=""box""></div><div class=""box""></div><div class=""box""></div><div class=""box""></div><div class=""box""></div><div class=""box""></div><div class=""box""></div><div class=""box""></div><div class=""box""></div><div class=""box active-box""></div><div class=""box""></div><div class=""box""></div><div class=""box""></div><div class=""box""></div></div>",,test_stim,1000.0,,test,0.0,simple,,1000.0,,0.0,11.0,,,,,,,,,
91,,html-keyboard-response,91,225699,0.0-3.0-76.0-0.0,,<div class = centerbox><div class = fixation>****</div></div>,,test_inter-stimulus,3000.0,,test,0.0,simple,,3000.0,,0.0,,,,,,,,,,
92,,html-keyboard-response,92,226701,0.0-3.0-77.0,,"<div class=""container""><div class=""box""></div><div class=""box""></div><div class=""box""></div><div class=""box""></div><div class=""box active-box""></div><div class=""box""></div><div class=""box""></div><div class=""box""></div><div class=""box""></div><div class=""box""></div><div class=""box""></div><div class=""box""></div><div class=""box""></div><div class=""box""></div><div class=""box""></div><div class=""box""></div></div>",,test_stim,1000.0,,test,0.0,simple,,1000.0,,0.0,4.0,,,,,,,,,
93,,html-keyboard-response,93,229705,0.0-3.0-78.0-0.0,,<div class = centerbox><div class = fixation>****</div></div>,,test_inter-stimulus,3000.0,,test,0.0,simple,,3000.0,,0.0,,,,,,,,,,
94,,html-keyboard-response,94,230712,0.0-3.0-79.0,,"<div class=""container""><div class=""box""></div><div class=""box""></div><div class=""box""></div><div class=""box""></div><div class=""box""></div><div class=""box""></div><div class=""box""></div><div class=""box""></div><div class=""box""></div><div class=""box""></div><div class=""box""></div><div class=""box""></div><div class=""box""></div><div class=""box active-box""></div><div class=""box""></div><div class=""box""></div></div>",,test_stim,1000.0,,test,0.0,simple,,1000.0,,0.0,13.0,,,,,,,,,
95,,html-keyboard-response,95,235717,0.0-3.0-80.0,,"<div class=""container""><div class=""box""></div><div class=""box""></div><div class=""box""></div><div class=""box""></div><div class=""box""></div><div class=""box""></div><div class=""box""></div><div class=""box""></div><div class=""box""></div><div class=""box""></div><div class=""box""></div><div class=""box""></div><div class=""box""></div><div class=""box""></div><div class=""box""></div><div class=""box response-active""></div></div>",[],test_response,5000.0,,test,0.0,simple,['NO_KEYS'],5000.0,,,,,"[15, 11, 4, 13]",[],0.0,,,,,
96,,html-keyboard-response,96,238523,0.0-3.0-81.0,,<div class = centerbox><div class = fixation>+</div></div>,,test_ITI,2799.6946933917898,,test,0.0,,,2799.6946933917898,,,,,,,,"{'min': 2, 'max': 20, 'mean': 5}",,,,
97,,html-keyboard-response,97,240483,0.0-3.1-0.1,1955.0,"<div class = bigbox><div class = picture_box><p class = block-text>
    <div class = centerbox><p class = block-text>Please take this time to read your feedback! This screen will advance automatically in 1 minute.</p><p class=block-text>You have completed 1 out of 3 blocks of trials.</p><p class = block-text>You have not been responding to some trials. Please respond on every trial that requires a response.</p><p class=block-text>Press <i>enter</i> to continue.</p></div>
    </font></p></div></div>",enter,test_feedback,60000.0,,test,1.0,,,,,,,,,,,,,,,
98,,html-keyboard-response,98,241693,0.0-3.1-1.1-0.1,1209.0,,q,test_attention_check,,,test,1.0,,,,,,,True,,,,,<p class='block-text'>Press the Q key</p> <div class=block-text>This screen will advance automatically in 1 minute.</div>,81.0,,
99,,html-keyboard-response,99,244700,0.0-3.1-2.1-0.1,,<div class = centerbox><div class = fixation>****</div></div>,,test_inter-stimulus,3000.0,,test,1.0,simple,,3000.0,,1.0,,,,,,,,,,
100,,html-keyboard-response,100,245705,0.0-3.1-3.1,,"<div class=""container""><div class=""box""></div><div class=""box""></div><div class=""box""></div><div class=""box""></div><div class=""box""></div><div class=""box""></div><div class=""box""></div><div class=""box""></div><div class=""box""></div><div class=""box""></div><div class=""box""></div><div class=""box""></div><div class=""box active-box""></div><div class=""box""></div><div class=""box""></div><div class=""box""></div></div>",,test_stim,1000.0,,test,1.0,simple,,1000.0,,1.0,12.0,,,,,,,,,
101,,html-keyboard-response,101,248709,0.0-3.1-4.1-0.1,,<div class = centerbox><div class = fixation>****</div></div>,,test_inter-stimulus,3000.0,,test,1.0,simple,,3000.0,,1.0,,,,,,,,,,
102,,html-keyboard-response,102,249716,0.0-3.1-5.1,,"<div class=""container""><div class=""box""></div><div class=""box""></div><div class=""box""></div><div class=""box active-box""></div><div class=""box""></div><div class=""box""></div><div class=""box""></div><div class=""box""></div><div class=""box""></div><div class=""box""></div><div class=""box""></div><div class=""box""></div><div class=""box""></div><div class=""box""></div><div class=""box""></div><div class=""box""></div></div>",,test_stim,1000.0,,test,1.0,simple,,1000.0,,1.0,3.0,,,,,,,,,
103,,html-keyboard-response,103,252718,0.0-3.1-6.1-0.1,,<div class = centerbox><div class = fixation>****</div></div>,,test_inter-stimulus,3000.0,,test,1.0,simple,,3000.0,,1.0,,,,,,,,,,
104,,html-keyboard-response,104,253726,0.0-3.1-7.1,,"<div class=""container""><div class=""box""></div><div class=""box""></div><div class=""box""></div><div class=""box""></div><div class=""box""></div><div class=""box""></div><div class=""box""></div><div class=""box""></div><div class=""box""></div><div class=""box""></div><div class=""box""></div><div class=""box""></div><div class=""box""></div><div class=""box""></div><div class=""box""></div><div class=""box active-box""></div></div>",,test_stim,1000.0,,test,1.0,simple,,1000.0,,1.0,15.0,,,,,,,,,
105,,html-keyboard-response,105,256728,0.0-3.1-8.1-0.1,,<div class = centerbox><div class = fixation>****</div></div>,,test_inter-stimulus,3000.0,,test,1.0,simple,,3000.0,,1.0,,,,,,,,,,
106,,html-keyboard-response,106,257734,0.0-3.1-9.1,,"<div class=""container""><div class=""box""></div><div class=""box""></div><div class=""box""></div><div class=""box""></div><div class=""box""></div><div class=""box""></div><div class=""box""></div><div class=""box""></div><div class=""box active-box""></div><div class=""box""></div><div class=""box""></div><div class=""box""></div><div class=""box""></div><div class=""box""></div><div class=""box""></div><div class=""box""></div></div>",,test_stim,1000.0,,test,1.0,simple,,1000.0,,1.0,8.0,,,,,,,,,
107,,html-keyboard-response,107,262738,0.0-3.1-10.1,,"<div class=""container""><div class=""box""></div><div class=""box""></div><div class=""box""></div><div class=""box""></div><div class=""box response-active""></div><div class=""box""></div><div class=""box""></div><div class=""box""></div><div class=""box""></div><div class=""box""></div><div class=""box""></div><div class=""box""></div><div class=""box""></div><div class=""box""></div><div class=""box""></div><div class=""box""></div></div>","[12, 3, 15, 8]",test_response,5000.0,,test,1.0,simple,['NO_KEYS'],5000.0,,,,1,"[12, 3, 15, 8]","[963, 1245, 696, 1301]",4205.0,,,,,
108,,html-keyboard-response,108,268971,0.0-3.1-11.1,,<div class = centerbox><div class = fixation>+</div></div>,,test_ITI,6226.817589958503,,test,1.0,,,6226.817589958503,,,,,,,,"{'min': 2, 'max': 20, 'mean': 5}",,,,
109,,html-keyboard-response,109,271978,0.0-3.1-12.1-0.1,,<div class = centerbox><div class = fixation>****</div></div>,,test_inter-stimulus,3000.0,,test,1.0,simple,,3000.0,,1.0,,,,,,,,,,
110,,html-keyboard-response,110,272981,0.0-3.1-13.1,,"<div class=""container""><div class=""box active-box""></div><div class=""box""></div><div class=""box""></div><div class=""box""></div><div class=""box""></div><div class=""box""></div><div class=""box""></div><div class=""box""></div><div class=""box""></div><div class=""box""></div><div class=""box""></div><div class=""box""></div><div class=""box""></div><div class=""box""></div><div class=""box""></div><div class=""box""></div></div>",,test_stim,1000.0,,test,1.0,simple,,1000.0,,1.0,0.0,,,,,,,,,
111,,html-keyboard-response,111,275985,0.0-3.1-14.1-0.1,,<div class = centerbox><div class = fixation>****</div></div>,,test_inter-stimulus,3000.0,,test,1.0,simple,,3000.0,,1.0,,,,,,,,,,
112,,html-keyboard-response,112,276992,0.0-3.1-15.1,,"<div class=""container""><div class=""box""></div><div class=""box active-box""></div><div class=""box""></div><div class=""box""></div><div class=""box""></div><div class=""box""></div><div class=""box""></div><div class=""box""></div><div class=""box""></div><div class=""box""></div><div class=""box""></div><div class=""box""></div><div class=""box""></div><div class=""box""></div><div class=""box""></div><div class=""box""></div></div>",,test_stim,1000.0,,test,1.0,simple,,1000.0,,1.0,1.0,,,,,,,,,
113,,html-keyboard-response,113,279996,0.0-3.1-16.1-0.1,,<div class = centerbox><div class = fixation>****</div></div>,,test_inter-stimulus,3000.0,,test,1.0,simple,,3000.0,,1.0,,,,,,,,,,
114,,html-keyboard-response,114,281003,0.0-3.1-17.1,,"<div class=""container""><div class=""box""></div><div class=""box""></div><div class=""box""></div><div class=""box""></div><div class=""box""></div><div class=""box""></div><div class=""box""></div><div class=""box""></div><div class=""box active-box""></div><div class=""box""></div><div class=""box""></div><div class=""box""></div><div class=""box""></div><div class=""box""></div><div class=""box""></div><div class=""box""></div></div>",,test_stim,1000.0,,test,1.0,simple,,1000.0,,1.0,8.0,,,,,,,,,
115,,html-keyboard-response,115,284009,0.0-3.1-18.1-0.1,,<div class = centerbox><div class = fixation>****</div></div>,,test_inter-stimulus,3000.0,,test,1.0,simple,,3000.0,,1.0,,,,,,,,,,
116,,html-keyboard-response,116,285015,0.0-3.1-19.1,,"<div class=""container""><div class=""box""></div><div class=""box""></div><div class=""box active-box""></div><div class=""box""></div><div class=""box""></div><div class=""box""></div><div class=""box""></div><div class=""box""></div><div class=""box""></div><div class=""box""></div><div class=""box""></div><div class=""box""></div><div class=""box""></div><div class=""box""></div><div class=""box""></div><div class=""box""></div></div>",,test_stim,1000.0,,test,1.0,simple,,1000.0,,1.0,2.0,,,,,,,,,
117,,html-keyboard-response,117,290021,0.0-3.1-20.1,,"<div class=""container""><div class=""box""></div><div class=""box""></div><div class=""box""></div><div class=""box""></div><div class=""box""></div><div class=""box""></div><div class=""box""></div><div class=""box""></div><div class=""box""></div><div class=""box""></div><div class=""box""></div><div class=""box response-active""></div><div class=""box""></div><div class=""box""></div><div class=""box""></div><div class=""box""></div></div>",[],test_response,5000.0,,test,1.0,simple,['NO_KEYS'],5000.0,,,,,"[0, 1, 8, 2]",[],0.0,,,,,
118,,html-keyboard-response,118,293305,0.0-3.1-21.1,,<div class = centerbox><div class = fixation>+</div></div>,,test_ITI,3275.1500653003036,,test,1.0,,,3275.1500653003036,,,,,,,,"{'min': 2, 'max': 20, 'mean': 5}",,,,
119,,html-keyboard-response,119,296312,0.0-3.1-22.1-0.1,,<div class = centerbox><div class = fixation>****</div></div>,,test_inter-stimulus,3000.0,,test,1.0,simple,,3000.0,,1.0,,,,,,,,,,
120,,html-keyboard-response,120,297319,0.0-3.1-23.1,,"<div class=""container""><div class=""box""></div><div class=""box""></div><div class=""box""></div><div class=""box""></div><div class=""box active-box""></div><div class=""box""></div><div class=""box""></div><div class=""box""></div><div class=""box""></div><div class=""box""></div><div class=""box""></div><div class=""box""></div><div class=""box""></div><div class=""box""></div><div class=""box""></div><div class=""box""></div></div>",,test_stim,1000.0,,test,1.0,simple,,1000.0,,1.0,4.0,,,,,,,,,
121,,html-keyboard-response,121,300323,0.0-3.1-24.1-0.1,,<div class = centerbox><div class = fixation>****</div></div>,,test_inter-stimulus,3000.0,,test,1.0,simple,,3000.0,,1.0,,,,,,,,,,
122,,html-keyboard-response,122,301330,0.0-3.1-25.1,,"<div class=""container""><div class=""box active-box""></div><div class=""box""></div><div class=""box""></div><div class=""box""></div><div class=""box""></div><div class=""box""></div><div class=""box""></div><div class=""box""></div><div class=""box""></div><div class=""box""></div><div class=""box""></div><div class=""box""></div><div class=""box""></div><div class=""box""></div><div class=""box""></div><div class=""box""></div></div>",,test_stim,1000.0,,test,1.0,simple,,1000.0,,1.0,0.0,,,,,,,,,
123,,html-keyboard-response,123,304337,0.0-3.1-26.1-0.1,,<div class = centerbox><div class = fixation>****</div></div>,,test_inter-stimulus,3000.0,,test,1.0,simple,,3000.0,,1.0,,,,,,,,,,
124,,html-keyboard-response,124,305344,0.0-3.1-27.1,,"<div class=""container""><div class=""box""></div><div class=""box""></div><div class=""box""></div><div class=""box active-box""></div><div class=""box""></div><div class=""box""></div><div class=""box""></div><div class=""box""></div><div class=""box""></div><div class=""box""></div><div class=""box""></div><div class=""box""></div><div class=""box""></div><div class=""box""></div><div class=""box""></div><div class=""box""></div></div>",,test_stim,1000.0,,test,1.0,simple,,1000.0,,1.0,3.0,,,,,,,,,
125,,html-keyboard-response,125,308348,0.0-3.1-28.1-0.1,,<div class = centerbox><div class = fixation>****</div></div>,,test_inter-stimulus,3000.0,,test,1.0,simple,,3000.0,,1.0,,,,,,,,,,
126,,html-keyboard-response,126,309355,0.0-3.1-29.1,,"<div class=""container""><div class=""box""></div><div class=""box""></div><div class=""box""></div><div class=""box""></div><div class=""box""></div><div class=""box""></div><div class=""box""></div><div class=""box active-box""></div><div class=""box""></div><div class=""box""></div><div class=""box""></div><div class=""box""></div><div class=""box""></div><div class=""box""></div><div class=""box""></div><div class=""box""></div></div>",,test_stim,1000.0,,test,1.0,simple,,1000.0,,1.0,7.0,,,,,,,,,
127,,html-keyboard-response,127,314362,0.0-3.1-30.1,,"<div class=""container""><div class=""box""></div><div class=""box""></div><div class=""box""></div><div class=""box""></div><div class=""box""></div><div class=""box""></div><div class=""box""></div><div class=""box""></div><div class=""box""></div><div class=""box""></div><div class=""box""></div><div class=""box response-active""></div><div class=""box""></div><div class=""box""></div><div class=""box""></div><div class=""box""></div></div>",[],test_response,5000.0,,test,1.0,simple,['NO_KEYS'],5000.0,,,,,"[4, 0, 3, 7]",[],0.0,,,,,
128,,html-keyboard-response,128,318688,0.0-3.1-31.1,,<div class = centerbox><div class = fixation>+</div></div>,,test_ITI,4323.261597097486,,test,1.0,,,4323.261597097486,,,,,,,,"{'min': 2, 'max': 20, 'mean': 5}",,,,
129,,html-keyboard-response,129,321695,0.0-3.1-32.1-0.1,,<div class = centerbox><div class = fixation>****</div></div>,,test_inter-stimulus,3000.0,,test,1.0,simple,,3000.0,,1.0,,,,,,,,,,
130,,html-keyboard-response,130,322701,0.0-3.1-33.1,,"<div class=""container""><div class=""box""></div><div class=""box""></div><div class=""box""></div><div class=""box""></div><div class=""box""></div><div class=""box""></div><div class=""box""></div><div class=""box""></div><div class=""box""></div><div class=""box""></div><div class=""box""></div><div class=""box""></div><div class=""box active-box""></div><div class=""box""></div><div class=""box""></div><div class=""box""></div></div>",,test_stim,1000.0,,test,1.0,simple,,1000.0,,1.0,12.0,,,,,,,,,
131,,html-keyboard-response,131,325708,0.0-3.1-34.1-0.1,,<div class = centerbox><div class = fixation>****</div></div>,,test_inter-stimulus,3000.0,,test,1.0,simple,,3000.0,,1.0,,,,,,,,,,
132,,html-keyboard-response,132,326712,0.0-3.1-35.1,,"<div class=""container""><div class=""box""></div><div class=""box""></div><div class=""box""></div><div class=""box""></div><div class=""box""></div><div class=""box""></div><div class=""box""></div><div class=""box active-box""></div><div class=""box""></div><div class=""box""></div><div class=""box""></div><div class=""box""></div><div class=""box""></div><div class=""box""></div><div class=""box""></div><div class=""box""></div></div>",,test_stim,1000.0,,test,1.0,simple,,1000.0,,1.0,7.0,,,,,,,,,
133,,html-keyboard-response,133,329719,0.0-3.1-36.1-0.1,,<div class = centerbox><div class = fixation>****</div></div>,,test_inter-stimulus,3000.0,,test,1.0,simple,,3000.0,,1.0,,,,,,,,,,
134,,html-keyboard-response,134,330726,0.0-3.1-37.1,,"<div class=""container""><div class=""box""></div><div class=""box""></div><div class=""box""></div><div class=""box""></div><div class=""box""></div><div class=""box""></div><div class=""box""></div><div class=""box""></div><div class=""box""></div><div class=""box""></div><div class=""box""></div><div class=""box active-box""></div><div class=""box""></div><div class=""box""></div><div class=""box""></div><div class=""box""></div></div>",,test_stim,1000.0,,test,1.0,simple,,1000.0,,1.0,11.0,,,,,,,,,
135,,html-keyboard-response,135,333729,0.0-3.1-38.1-0.1,,<div class = centerbox><div class = fixation>****</div></div>,,test_inter-stimulus,3000.0,,test,1.0,simple,,3000.0,,1.0,,,,,,,,,,
136,,html-keyboard-response,136,334733,0.0-3.1-39.1,,"<div class=""container""><div class=""box""></div><div class=""box""></div><div class=""box""></div><div class=""box""></div><div class=""box""></div><div class=""box""></div><div class=""box""></div><div class=""box""></div><div class=""box""></div><div class=""box""></div><div class=""box""></div><div class=""box""></div><div class=""box""></div><div class=""box""></div><div class=""box active-box""></div><div class=""box""></div></div>",,test_stim,1000.0,,test,1.0,simple,,1000.0,,1.0,14.0,,,,,,,,,
137,,html-keyboard-response,137,339738,0.0-3.1-40.1,,"<div class=""container""><div class=""box""></div><div class=""box""></div><div class=""box response-active""></div><div class=""box""></div><div class=""box""></div><div class=""box""></div><div class=""box""></div><div class=""box""></div><div class=""box""></div><div class=""box""></div><div class=""box""></div><div class=""box""></div><div class=""box""></div><div class=""box""></div><div class=""box""></div><div class=""box""></div></div>",[],test_response,5000.0,,test,1.0,simple,['NO_KEYS'],5000.0,,,,,"[12, 7, 11, 14]",[],0.0,,,,,
138,,html-keyboard-response,138,344852,0.0-3.1-41.1,,<div class = centerbox><div class = fixation>+</div></div>,,test_ITI,5107.713644322045,,test,1.0,,,5107.713644322045,,,,,,,,"{'min': 2, 'max': 20, 'mean': 5}",,,,
139,,html-keyboard-response,139,347858,0.0-3.1-42.1-0.1,,<div class = centerbox><div class = fixation>****</div></div>,,test_inter-stimulus,3000.0,,test,1.0,simple,,3000.0,,1.0,,,,,,,,,,
140,,html-keyboard-response,140,348863,0.0-3.1-43.1,,"<div class=""container""><div class=""box""></div><div class=""box""></div><div class=""box""></div><div class=""box""></div><div class=""box""></div><div class=""box""></div><div class=""box""></div><div class=""box""></div><div class=""box""></div><div class=""box""></div><div class=""box""></div><div class=""box""></div><div class=""box active-box""></div><div class=""box""></div><div class=""box""></div><div class=""box""></div></div>",,test_stim,1000.0,,test,1.0,simple,,1000.0,,1.0,12.0,,,,,,,,,
141,,html-keyboard-response,141,351870,0.0-3.1-44.1-0.1,,<div class = centerbox><div class = fixation>****</div></div>,,test_inter-stimulus,3000.0,,test,1.0,simple,,3000.0,,1.0,,,,,,,,,,
142,,html-keyboard-response,142,352872,0.0-3.1-45.1,,"<div class=""container""><div class=""box""></div><div class=""box active-box""></div><div class=""box""></div><div class=""box""></div><div class=""box""></div><div class=""box""></div><div class=""box""></div><div class=""box""></div><div class=""box""></div><div class=""box""></div><div class=""box""></div><div class=""box""></div><div class=""box""></div><div class=""box""></div><div class=""box""></div><div class=""box""></div></div>",,test_stim,1000.0,,test,1.0,simple,,1000.0,,1.0,1.0,,,,,,,,,
143,,html-keyboard-response,143,355879,0.0-3.1-46.1-0.1,,<div class = centerbox><div class = fixation>****</div></div>,,test_inter-stimulus,3000.0,,test,1.0,simple,,3000.0,,1.0,,,,,,,,,,
144,,html-keyboard-response,144,356881,0.0-3.1-47.1,,"<div class=""container""><div class=""box""></div><div class=""box""></div><div class=""box""></div><div class=""box""></div><div class=""box""></div><div class=""box""></div><div class=""box""></div><div class=""box""></div><div class=""box""></div><div class=""box""></div><div class=""box""></div><div class=""box""></div><div class=""box""></div><div class=""box""></div><div class=""box""></div><div class=""box active-box""></div></div>",,test_stim,1000.0,,test,1.0,simple,,1000.0,,1.0,15.0,,,,,,,,,
145,,html-keyboard-response,145,359885,0.0-3.1-48.1-0.1,,<div class = centerbox><div class = fixation>****</div></div>,,test_inter-stimulus,3000.0,,test,1.0,simple,,3000.0,,1.0,,,,,,,,,,
146,,html-keyboard-response,146,360893,0.0-3.1-49.1,,"<div class=""container""><div class=""box""></div><div class=""box""></div><div class=""box""></div><div class=""box""></div><div class=""box""></div><div class=""box""></div><div class=""box active-box""></div><div class=""box""></div><div class=""box""></div><div class=""box""></div><div class=""box""></div><div class=""box""></div><div class=""box""></div><div class=""box""></div><div class=""box""></div><div class=""box""></div></div>",,test_stim,1000.0,,test,1.0,simple,,1000.0,,1.0,6.0,,,,,,,,,
147,,html-keyboard-response,147,365900,0.0-3.1-50.1,,"<div class=""container""><div class=""box""></div><div class=""box""></div><div class=""box""></div><div class=""box""></div><div class=""box""></div><div class=""box response-active""></div><div class=""box""></div><div class=""box""></div><div class=""box""></div><div class=""box""></div><div class=""box""></div><div class=""box""></div><div class=""box""></div><div class=""box""></div><div class=""box""></div><div class=""box""></div></div>",[],test_response,5000.0,,test,1.0,simple,['NO_KEYS'],5000.0,,,,,"[12, 1, 15, 6]",[],0.0,,,,,
148,,html-keyboard-response,148,373068,0.0-3.1-51.1,,<div class = centerbox><div class = fixation>+</div></div>,,test_ITI,7164.173782519026,,test,1.0,,,7164.173782519026,,,,,,,,"{'min': 2, 'max': 20, 'mean': 5}",,,,
149,,html-keyboard-response,149,376075,0.0-3.1-52.1-0.1,,<div class = centerbox><div class = fixation>****</div></div>,,test_inter-stimulus,3000.0,,test,1.0,simple,,3000.0,,1.0,,,,,,,,,,
150,,html-keyboard-response,150,377082,0.0-3.1-53.1,,"<div class=""container""><div class=""box""></div><div class=""box""></div><div class=""box""></div><div class=""box""></div><div class=""box""></div><div class=""box""></div><div class=""box active-box""></div><div class=""box""></div><div class=""box""></div><div class=""box""></div><div class=""box""></div><div class=""box""></div><div class=""box""></div><div class=""box""></div><div class=""box""></div><div class=""box""></div></div>",,test_stim,1000.0,,test,1.0,simple,,1000.0,,1.0,6.0,,,,,,,,,
151,,html-keyboard-response,151,380088,0.0-3.1-54.1-0.1,,<div class = centerbox><div class = fixation>****</div></div>,,test_inter-stimulus,3000.0,,test,1.0,simple,,3000.0,,1.0,,,,,,,,,,
152,,html-keyboard-response,152,381093,0.0-3.1-55.1,,"<div class=""container""><div class=""box""></div><div class=""box""></div><div class=""box""></div><div class=""box""></div><div class=""box""></div><div class=""box""></div><div class=""box""></div><div class=""box""></div><div class=""box""></div><div class=""box""></div><div class=""box""></div><div class=""box""></div><div class=""box""></div><div class=""box active-box""></div><div class=""box""></div><div class=""box""></div></div>",,test_stim,1000.0,,test,1.0,simple,,1000.0,,1.0,13.0,,,,,,,,,
153,,html-keyboard-response,153,384098,0.0-3.1-56.1-0.1,,<div class = centerbox><div class = fixation>****</div></div>,,test_inter-stimulus,3000.0,,test,1.0,simple,,3000.0,,1.0,,,,,,,,,,
154,,html-keyboard-response,154,385105,0.0-3.1-57.1,,"<div class=""container""><div class=""box""></div><div class=""box""></div><div class=""box""></div><div class=""box""></div><div class=""box""></div><div class=""box""></div><div class=""box""></div><div class=""box""></div><div class=""box active-box""></div><div class=""box""></div><div class=""box""></div><div class=""box""></div><div class=""box""></div><div class=""box""></div><div class=""box""></div><div class=""box""></div></div>",,test_stim,1000.0,,test,1.0,simple,,1000.0,,1.0,8.0,,,,,,,,,
155,,html-keyboard-response,155,388112,0.0-3.1-58.1-0.1,,<div class = centerbox><div class = fixation>****</div></div>,,test_inter-stimulus,3000.0,,test,1.0,simple,,3000.0,,1.0,,,,,,,,,,
156,,html-keyboard-response,156,389117,0.0-3.1-59.1,,"<div class=""container""><div class=""box""></div><div class=""box""></div><div class=""box""></div><div class=""box""></div><div class=""box""></div><div class=""box""></div><div class=""box""></div><div class=""box""></div><div class=""box""></div><div class=""box""></div><div class=""box""></div><div class=""box""></div><div class=""box""></div><div class=""box active-box""></div><div class=""box""></div><div class=""box""></div></div>",,test_stim,1000.0,,test,1.0,simple,,1000.0,,1.0,13.0,,,,,,,,,
157,,html-keyboard-response,157,394124,0.0-3.1-60.1,,"<div class=""container""><div class=""box""></div><div class=""box""></div><div class=""box""></div><div class=""box""></div><div class=""box""></div><div class=""box""></div><div class=""box""></div><div class=""box""></div><div class=""box""></div><div class=""box""></div><div class=""box""></div><div class=""box""></div><div class=""box""></div><div class=""box""></div><div class=""box response-active""></div><div class=""box""></div></div>",[],test_response,5000.0,,test,1.0,simple,['NO_KEYS'],5000.0,,,,,"[6, 13, 8, 13]",[],0.0,,,,,
158,,html-keyboard-response,158,410242,0.0-3.1-61.1,,<div class = centerbox><div class = fixation>+</div></div>,,test_ITI,16111.979701608305,,test,1.0,,,16111.979701608305,,,,,,,,"{'min': 2, 'max': 20, 'mean': 5}",,,,
159,,html-keyboard-response,159,413249,0.0-3.1-62.1-0.1,,<div class = centerbox><div class = fixation>****</div></div>,,test_inter-stimulus,3000.0,,test,1.0,simple,,3000.0,,1.0,,,,,,,,,,
160,,html-keyboard-response,160,414252,0.0-3.1-63.1,,"<div class=""container""><div class=""box""></div><div class=""box""></div><div class=""box""></div><div class=""box""></div><div class=""box""></div><div class=""box""></div><div class=""box""></div><div class=""box""></div><div class=""box""></div><div class=""box""></div><div class=""box""></div><div class=""box""></div><div class=""box""></div><div class=""box""></div><div class=""box""></div><div class=""box active-box""></div></div>",,test_stim,1000.0,,test,1.0,simple,,1000.0,,1.0,15.0,,,,,,,,,
161,,html-keyboard-response,161,417258,0.0-3.1-64.1-0.1,,<div class = centerbox><div class = fixation>****</div></div>,,test_inter-stimulus,3000.0,,test,1.0,simple,,3000.0,,1.0,,,,,,,,,,
162,,html-keyboard-response,162,418264,0.0-3.1-65.1,,"<div class=""container""><div class=""box""></div><div class=""box""></div><div class=""box""></div><div class=""box""></div><div class=""box""></div><div class=""box""></div><div class=""box""></div><div class=""box""></div><div class=""box""></div><div class=""box""></div><div class=""box active-box""></div><div class=""box""></div><div class=""box""></div><div class=""box""></div><div class=""box""></div><div class=""box""></div></div>",,test_stim,1000.0,,test,1.0,simple,,1000.0,,1.0,10.0,,,,,,,,,
163,,html-keyboard-response,163,421271,0.0-3.1-66.1-0.1,,<div class = centerbox><div class = fixation>****</div></div>,,test_inter-stimulus,3000.0,,test,1.0,simple,,3000.0,,1.0,,,,,,,,,,
164,,html-keyboard-response,164,422273,0.0-3.1-67.1,,"<div class=""container""><div class=""box""></div><div class=""box""></div><div class=""box""></div><div class=""box""></div><div class=""box""></div><div class=""box""></div><div class=""box""></div><div class=""box active-box""></div><div class=""box""></div><div class=""box""></div><div class=""box""></div><div class=""box""></div><div class=""box""></div><div class=""box""></div><div class=""box""></div><div class=""box""></div></div>",,test_stim,1000.0,,test,1.0,simple,,1000.0,,1.0,7.0,,,,,,,,,
165,,html-keyboard-response,165,425279,0.0-3.1-68.1-0.1,,<div class = centerbox><div class = fixation>****</div></div>,,test_inter-stimulus,3000.0,,test,1.0,simple,,3000.0,,1.0,,,,,,,,,,
166,,html-keyboard-response,166,426284,0.0-3.1-69.1,,"<div class=""container""><div class=""box""></div><div class=""box""></div><div class=""box""></div><div class=""box""></div><div class=""box""></div><div class=""box""></div><div class=""box""></div><div class=""box""></div><div class=""box active-box""></div><div class=""box""></div><div class=""box""></div><div class=""box""></div><div class=""box""></div><div class=""box""></div><div class=""box""></div><div class=""box""></div></div>",,test_stim,1000.0,,test,1.0,simple,,1000.0,,1.0,8.0,,,,,,,,,
167,,html-keyboard-response,167,431290,0.0-3.1-70.1,,"<div class=""container""><div class=""box""></div><div class=""box""></div><div class=""box""></div><div class=""box""></div><div class=""box""></div><div class=""box""></div><div class=""box""></div><div class=""box""></div><div class=""box""></div><div class=""box""></div><div class=""box""></div><div class=""box""></div><div class=""box""></div><div class=""box response-active""></div><div class=""box""></div><div class=""box""></div></div>",[],test_response,5000.0,,test,1.0,simple,['NO_KEYS'],5000.0,,,,,"[15, 10, 7, 8]",[],0.0,,,,,
168,,html-keyboard-response,168,443320,0.0-3.1-71.1,,<div class = centerbox><div class = fixation>+</div></div>,,test_ITI,12023.484629637,,test,1.0,,,12023.484629637,,,,,,,,"{'min': 2, 'max': 20, 'mean': 5}",,,,
169,,html-keyboard-response,169,446327,0.0-3.1-72.1-0.1,,<div class = centerbox><div class = fixation>****</div></div>,,test_inter-stimulus,3000.0,,test,1.0,simple,,3000.0,,1.0,,,,,,,,,,
170,,html-keyboard-response,170,447334,0.0-3.1-73.1,,"<div class=""container""><div class=""box""></div><div class=""box""></div><div class=""box""></div><div class=""box""></div><div class=""box""></div><div class=""box""></div><div class=""box""></div><div class=""box""></div><div class=""box""></div><div class=""box""></div><div class=""box""></div><div class=""box""></div><div class=""box""></div><div class=""box""></div><div class=""box""></div><div class=""box active-box""></div></div>",,test_stim,1000.0,,test,1.0,simple,,1000.0,,1.0,15.0,,,,,,,,,
171,,html-keyboard-response,171,450336,0.0-3.1-74.1-0.1,,<div class = centerbox><div class = fixation>****</div></div>,,test_inter-stimulus,3000.0,,test,1.0,simple,,3000.0,,1.0,,,,,,,,,,
172,,html-keyboard-response,172,451343,0.0-3.1-75.1,,"<div class=""container""><div class=""box""></div><div class=""box""></div><div class=""box""></div><div class=""box""></div><div class=""box""></div><div class=""box""></div><div class=""box""></div><div class=""box""></div><div class=""box""></div><div class=""box""></div><div class=""box""></div><div class=""box""></div><div class=""box""></div><div class=""box active-box""></div><div class=""box""></div><div class=""box""></div></div>",,test_stim,1000.0,,test,1.0,simple,,1000.0,,1.0,13.0,,,,,,,,,
173,,html-keyboard-response,173,454349,0.0-3.1-76.1-0.1,,<div class = centerbox><div class = fixation>****</div></div>,,test_inter-stimulus,3000.0,,test,1.0,simple,,3000.0,,1.0,,,,,,,,,,
174,,html-keyboard-response,174,455352,0.0-3.1-77.1,,"<div class=""container""><div class=""box""></div><div class=""box""></div><div class=""box active-box""></div><div class=""box""></div><div class=""box""></div><div class=""box""></div><div class=""box""></div><div class=""box""></div><div class=""box""></div><div class=""box""></div><div class=""box""></div><div class=""box""></div><div class=""box""></div><div class=""box""></div><div class=""box""></div><div class=""box""></div></div>",,test_stim,1000.0,,test,1.0,simple,,1000.0,,1.0,2.0,,,,,,,,,
175,,html-keyboard-response,175,458357,0.0-3.1-78.1-0.1,,<div class = centerbox><div class = fixation>****</div></div>,,test_inter-stimulus,3000.0,,test,1.0,simple,,3000.0,,1.0,,,,,,,,,,
176,,html-keyboard-response,176,459361,0.0-3.1-79.1,,"<div class=""container""><div class=""box""></div><div class=""box""></div><div class=""box""></div><div class=""box""></div><div class=""box active-box""></div><div class=""box""></div><div class=""box""></div><div class=""box""></div><div class=""box""></div><div class=""box""></div><div class=""box""></div><div class=""box""></div><div class=""box""></div><div class=""box""></div><div class=""box""></div><div class=""box""></div></div>",,test_stim,1000.0,,test,1.0,simple,,1000.0,,1.0,4.0,,,,,,,,,
177,,html-keyboard-response,177,464368,0.0-3.1-80.1,,"<div class=""container""><div class=""box""></div><div class=""box""></div><div class=""box""></div><div class=""box""></div><div class=""box""></div><div class=""box""></div><div class=""box""></div><div class=""box""></div><div class=""box""></div><div class=""box""></div><div class=""box""></div><div class=""box""></div><div class=""box""></div><div class=""box response-active""></div><div class=""box""></div><div class=""box""></div></div>",[],test_response,5000.0,,test,1.0,simple,['NO_KEYS'],5000.0,,,,,"[15, 13, 2, 4]",[],0.0,,,,,
178,,html-keyboard-response,178,483595,0.0-3.1-81.1,,<div class = centerbox><div class = fixation>+</div></div>,,test_ITI,19220.821250851757,,test,1.0,,,19220.821250851757,,,,,,,,"{'min': 2, 'max': 20, 'mean': 5}",,,,
179,,html-keyboard-response,179,487565,0.0-3.2-0.2,3968.0,"<div class = bigbox><div class = picture_box><p class = block-text>
    <div class = centerbox><p class = block-text>Please take this time to read your feedback! This screen will advance automatically in 1 minute.</p><p class=block-text>You have completed 2 out of 3 blocks of trials.</p><p class = block-text>You have not been responding to some trials. Please respond on every trial that requires a response.</p><p class=block-text>Press <i>enter</i> to continue.</p></div>
    </font></p></div></div>",enter,test_feedback,60000.0,,test,2.0,,,,,,,,,,,,,,,
180,,html-keyboard-response,180,488581,0.0-3.2-1.2-0.2,1015.0,,s,test_attention_check,,,test,2.0,,,,,,,True,,,,,<p class='block-text'>Press the S key</p> <div class=block-text>This screen will advance automatically in 1 minute.</div>,83.0,,
181,,html-keyboard-response,181,491586,0.0-3.2-2.2-0.2,,<div class = centerbox><div class = fixation>****</div></div>,,test_inter-stimulus,3000.0,,test,2.0,simple,,3000.0,,2.0,,,,,,,,,,
182,,html-keyboard-response,182,492593,0.0-3.2-3.2,,"<div class=""container""><div class=""box""></div><div class=""box""></div><div class=""box""></div><div class=""box""></div><div class=""box""></div><div class=""box""></div><div class=""box""></div><div class=""box""></div><div class=""box""></div><div class=""box""></div><div class=""box active-box""></div><div class=""box""></div><div class=""box""></div><div class=""box""></div><div class=""box""></div><div class=""box""></div></div>",,test_stim,1000.0,,test,2.0,simple,,1000.0,,2.0,10.0,,,,,,,,,
183,,html-keyboard-response,183,495595,0.0-3.2-4.2-0.2,,<div class = centerbox><div class = fixation>****</div></div>,,test_inter-stimulus,3000.0,,test,2.0,simple,,3000.0,,2.0,,,,,,,,,,
184,,html-keyboard-response,184,496597,0.0-3.2-5.2,,"<div class=""container""><div class=""box""></div><div class=""box""></div><div class=""box""></div><div class=""box""></div><div class=""box""></div><div class=""box""></div><div class=""box""></div><div class=""box""></div><div class=""box""></div><div class=""box active-box""></div><div class=""box""></div><div class=""box""></div><div class=""box""></div><div class=""box""></div><div class=""box""></div><div class=""box""></div></div>",,test_stim,1000.0,,test,2.0,simple,,1000.0,,2.0,9.0,,,,,,,,,
185,,html-keyboard-response,185,499604,0.0-3.2-6.2-0.2,,<div class = centerbox><div class = fixation>****</div></div>,,test_inter-stimulus,3000.0,,test,2.0,simple,,3000.0,,2.0,,,,,,,,,,
186,,html-keyboard-response,186,500609,0.0-3.2-7.2,,"<div class=""container""><div class=""box""></div><div class=""box""></div><div class=""box""></div><div class=""box""></div><div class=""box""></div><div class=""box""></div><div class=""box""></div><div class=""box active-box""></div><div class=""box""></div><div class=""box""></div><div class=""box""></div><div class=""box""></div><div class=""box""></div><div class=""box""></div><div class=""box""></div><div class=""box""></div></div>",,test_stim,1000.0,,test,2.0,simple,,1000.0,,2.0,7.0,,,,,,,,,
187,,html-keyboard-response,187,503614,0.0-3.2-8.2-0.2,,<div class = centerbox><div class = fixation>****</div></div>,,test_inter-stimulus,3000.0,,test,2.0,simple,,3000.0,,2.0,,,,,,,,,,
188,,html-keyboard-response,188,504621,0.0-3.2-9.2,,"<div class=""container""><div class=""box""></div><div class=""box""></div><div class=""box""></div><div class=""box""></div><div class=""box""></div><div class=""box""></div><div class=""box""></div><div class=""box""></div><div class=""box""></div><div class=""box""></div><div class=""box""></div><div class=""box""></div><div class=""box active-box""></div><div class=""box""></div><div class=""box""></div><div class=""box""></div></div>",,test_stim,1000.0,,test,2.0,simple,,1000.0,,2.0,12.0,,,,,,,,,
189,,html-keyboard-response,189,509628,0.0-3.2-10.2,,"<div class=""container""><div class=""box""></div><div class=""box""></div><div class=""box""></div><div class=""box""></div><div class=""box""></div><div class=""box""></div><div class=""box""></div><div class=""box""></div><div class=""box""></div><div class=""box response-active""></div><div class=""box""></div><div class=""box""></div><div class=""box""></div><div class=""box""></div><div class=""box""></div><div class=""box""></div></div>","[10, 9, 7, 12]",test_response,5000.0,,test,2.0,simple,['NO_KEYS'],5000.0,,,,1,"[10, 9, 7, 12]","[513, 391, 775, 1039]",2718.0,,,,,
190,,html-keyboard-response,190,515929,0.0-3.2-11.2,,<div class = centerbox><div class = fixation>+</div></div>,,test_ITI,6298.311591972731,,test,2.0,,,6298.311591972731,,,,,,,,"{'min': 2, 'max': 20, 'mean': 5}",,,,
191,,html-keyboard-response,191,518934,0.0-3.2-12.2-0.2,,<div class = centerbox><div class = fixation>****</div></div>,,test_inter-stimulus,3000.0,,test,2.0,simple,,3000.0,,2.0,,,,,,,,,,
192,,html-keyboard-response,192,519940,0.0-3.2-13.2,,"<div class=""container""><div class=""box""></div><div class=""box""></div><div class=""box""></div><div class=""box""></div><div class=""box""></div><div class=""box""></div><div class=""box""></div><div class=""box""></div><div class=""box""></div><div class=""box""></div><div class=""box active-box""></div><div class=""box""></div><div class=""box""></div><div class=""box""></div><div class=""box""></div><div class=""box""></div></div>",,test_stim,1000.0,,test,2.0,simple,,1000.0,,2.0,10.0,,,,,,,,,
193,,html-keyboard-response,193,522947,0.0-3.2-14.2-0.2,,<div class = centerbox><div class = fixation>****</div></div>,,test_inter-stimulus,3000.0,,test,2.0,simple,,3000.0,,2.0,,,,,,,,,,
194,,html-keyboard-response,194,523954,0.0-3.2-15.2,,"<div class=""container""><div class=""box""></div><div class=""box""></div><div class=""box""></div><div class=""box""></div><div class=""box""></div><div class=""box active-box""></div><div class=""box""></div><div class=""box""></div><div class=""box""></div><div class=""box""></div><div class=""box""></div><div class=""box""></div><div class=""box""></div><div class=""box""></div><div class=""box""></div><div class=""box""></div></div>",,test_stim,1000.0,,test,2.0,simple,,1000.0,,2.0,5.0,,,,,,,,,
195,,html-keyboard-response,195,526956,0.0-3.2-16.2-0.2,,<div class = centerbox><div class = fixation>****</div></div>,,test_inter-stimulus,3000.0,,test,2.0,simple,,3000.0,,2.0,,,,,,,,,,
196,,html-keyboard-response,196,527963,0.0-3.2-17.2,,"<div class=""container""><div class=""box""></div><div class=""box""></div><div class=""box""></div><div class=""box""></div><div class=""box active-box""></div><div class=""box""></div><div class=""box""></div><div class=""box""></div><div class=""box""></div><div class=""box""></div><div class=""box""></div><div class=""box""></div><div class=""box""></div><div class=""box""></div><div class=""box""></div><div class=""box""></div></div>",,test_stim,1000.0,,test,2.0,simple,,1000.0,,2.0,4.0,,,,,,,,,
197,,html-keyboard-response,197,530969,0.0-3.2-18.2-0.2,,<div class = centerbox><div class = fixation>****</div></div>,,test_inter-stimulus,3000.0,,test,2.0,simple,,3000.0,,2.0,,,,,,,,,,
198,,html-keyboard-response,198,531976,0.0-3.2-19.2,,"<div class=""container""><div class=""box active-box""></div><div class=""box""></div><div class=""box""></div><div class=""box""></div><div class=""box""></div><div class=""box""></div><div class=""box""></div><div class=""box""></div><div class=""box""></div><div class=""box""></div><div class=""box""></div><div class=""box""></div><div class=""box""></div><div class=""box""></div><div class=""box""></div><div class=""box""></div></div>",,test_stim,1000.0,,test,2.0,simple,,1000.0,,2.0,0.0,,,,,,,,,
199,,html-keyboard-response,199,536979,0.0-3.2-20.2,,"<div class=""container""><div class=""box""></div><div class=""box""></div><div class=""box""></div><div class=""box""></div><div class=""box""></div><div class=""box""></div><div class=""box""></div><div class=""box response-active""></div><div class=""box""></div><div class=""box""></div><div class=""box""></div><div class=""box""></div><div class=""box""></div><div class=""box""></div><div class=""box""></div><div class=""box""></div></div>",[],test_response,5000.0,,test,2.0,simple,['NO_KEYS'],5000.0,,,,,"[10, 5, 4, 0]",[],0.0,,,,,
200,,html-keyboard-response,200,540755,0.0-3.2-21.2,,<div class = centerbox><div class = fixation>+</div></div>,,test_ITI,3769.7232917245033,,test,2.0,,,3769.7232917245033,,,,,,,,"{'min': 2, 'max': 20, 'mean': 5}",,,,
201,,html-keyboard-response,201,543761,0.0-3.2-22.2-0.2,,<div class = centerbox><div class = fixation>****</div></div>,,test_inter-stimulus,3000.0,,test,2.0,simple,,3000.0,,2.0,,,,,,,,,,
202,,html-keyboard-response,202,544768,0.0-3.2-23.2,,"<div class=""container""><div class=""box""></div><div class=""box""></div><div class=""box""></div><div class=""box""></div><div class=""box""></div><div class=""box""></div><div class=""box""></div><div class=""box""></div><div class=""box""></div><div class=""box""></div><div class=""box""></div><div class=""box""></div><div class=""box""></div><div class=""box active-box""></div><div class=""box""></div><div class=""box""></div></div>",,test_stim,1000.0,,test,2.0,simple,,1000.0,,2.0,13.0,,,,,,,,,
203,,html-keyboard-response,203,547771,0.0-3.2-24.2-0.2,,<div class = centerbox><div class = fixation>****</div></div>,,test_inter-stimulus,3000.0,,test,2.0,simple,,3000.0,,2.0,,,,,,,,,,
204,,html-keyboard-response,204,548775,0.0-3.2-25.2,,"<div class=""container""><div class=""box""></div><div class=""box active-box""></div><div class=""box""></div><div class=""box""></div><div class=""box""></div><div class=""box""></div><div class=""box""></div><div class=""box""></div><div class=""box""></div><div class=""box""></div><div class=""box""></div><div class=""box""></div><div class=""box""></div><div class=""box""></div><div class=""box""></div><div class=""box""></div></div>",,test_stim,1000.0,,test,2.0,simple,,1000.0,,2.0,1.0,,,,,,,,,
205,,html-keyboard-response,205,551777,0.0-3.2-26.2-0.2,,<div class = centerbox><div class = fixation>****</div></div>,,test_inter-stimulus,3000.0,,test,2.0,simple,,3000.0,,2.0,,,,,,,,,,
206,,html-keyboard-response,206,552780,0.0-3.2-27.2,,"<div class=""container""><div class=""box""></div><div class=""box""></div><div class=""box""></div><div class=""box""></div><div class=""box""></div><div class=""box""></div><div class=""box""></div><div class=""box""></div><div class=""box active-box""></div><div class=""box""></div><div class=""box""></div><div class=""box""></div><div class=""box""></div><div class=""box""></div><div class=""box""></div><div class=""box""></div></div>",,test_stim,1000.0,,test,2.0,simple,,1000.0,,2.0,8.0,,,,,,,,,
207,,html-keyboard-response,207,555782,0.0-3.2-28.2-0.2,,<div class = centerbox><div class = fixation>****</div></div>,,test_inter-stimulus,3000.0,,test,2.0,simple,,3000.0,,2.0,,,,,,,,,,
208,,html-keyboard-response,208,556789,0.0-3.2-29.2,,"<div class=""container""><div class=""box active-box""></div><div class=""box""></div><div class=""box""></div><div class=""box""></div><div class=""box""></div><div class=""box""></div><div class=""box""></div><div class=""box""></div><div class=""box""></div><div class=""box""></div><div class=""box""></div><div class=""box""></div><div class=""box""></div><div class=""box""></div><div class=""box""></div><div class=""box""></div></div>",,test_stim,1000.0,,test,2.0,simple,,1000.0,,2.0,0.0,,,,,,,,,
209,,html-keyboard-response,209,561792,0.0-3.2-30.2,,"<div class=""container""><div class=""box""></div><div class=""box""></div><div class=""box""></div><div class=""box""></div><div class=""box""></div><div class=""box""></div><div class=""box""></div><div class=""box""></div><div class=""box""></div><div class=""box response-active""></div><div class=""box""></div><div class=""box""></div><div class=""box""></div><div class=""box""></div><div class=""box""></div><div class=""box""></div></div>",[],test_response,5000.0,,test,2.0,simple,['NO_KEYS'],5000.0,,,,,"[13, 1, 8, 0]",[],0.0,,,,,
210,,html-keyboard-response,210,576837,0.0-3.2-31.2,,<div class = centerbox><div class = fixation>+</div></div>,,test_ITI,15039.442348046365,,test,2.0,,,15039.442348046365,,,,,,,,"{'min': 2, 'max': 20, 'mean': 5}",,,,
211,,html-keyboard-response,211,579844,0.0-3.2-32.2-0.2,,<div class = centerbox><div class = fixation>****</div></div>,,test_inter-stimulus,3000.0,,test,2.0,simple,,3000.0,,2.0,,,,,,,,,,
212,,html-keyboard-response,212,580847,0.0-3.2-33.2,,"<div class=""container""><div class=""box""></div><div class=""box""></div><div class=""box active-box""></div><div class=""box""></div><div class=""box""></div><div class=""box""></div><div class=""box""></div><div class=""box""></div><div class=""box""></div><div class=""box""></div><div class=""box""></div><div class=""box""></div><div class=""box""></div><div class=""box""></div><div class=""box""></div><div class=""box""></div></div>",,test_stim,1000.0,,test,2.0,simple,,1000.0,,2.0,2.0,,,,,,,,,
213,,html-keyboard-response,213,583854,0.0-3.2-34.2-0.2,,<div class = centerbox><div class = fixation>****</div></div>,,test_inter-stimulus,3000.0,,test,2.0,simple,,3000.0,,2.0,,,,,,,,,,
214,,html-keyboard-response,214,584861,0.0-3.2-35.2,,"<div class=""container""><div class=""box""></div><div class=""box""></div><div class=""box""></div><div class=""box""></div><div class=""box""></div><div class=""box""></div><div class=""box""></div><div class=""box active-box""></div><div class=""box""></div><div class=""box""></div><div class=""box""></div><div class=""box""></div><div class=""box""></div><div class=""box""></div><div class=""box""></div><div class=""box""></div></div>",,test_stim,1000.0,,test,2.0,simple,,1000.0,,2.0,7.0,,,,,,,,,
215,,html-keyboard-response,215,587863,0.0-3.2-36.2-0.2,,<div class = centerbox><div class = fixation>****</div></div>,,test_inter-stimulus,3000.0,,test,2.0,simple,,3000.0,,2.0,,,,,,,,,,
216,,html-keyboard-response,216,588867,0.0-3.2-37.2,,"<div class=""container""><div class=""box""></div><div class=""box""></div><div class=""box""></div><div class=""box""></div><div class=""box""></div><div class=""box""></div><div class=""box""></div><div class=""box""></div><div class=""box""></div><div class=""box""></div><div class=""box""></div><div class=""box""></div><div class=""box""></div><div class=""box""></div><div class=""box""></div><div class=""box active-box""></div></div>",,test_stim,1000.0,,test,2.0,simple,,1000.0,,2.0,15.0,,,,,,,,,
217,,html-keyboard-response,217,591871,0.0-3.2-38.2-0.2,,<div class = centerbox><div class = fixation>****</div></div>,,test_inter-stimulus,3000.0,,test,2.0,simple,,3000.0,,2.0,,,,,,,,,,
218,,html-keyboard-response,218,592875,0.0-3.2-39.2,,"<div class=""container""><div class=""box""></div><div class=""box""></div><div class=""box""></div><div class=""box""></div><div class=""box""></div><div class=""box""></div><div class=""box""></div><div class=""box""></div><div class=""box""></div><div class=""box""></div><div class=""box""></div><div class=""box""></div><div class=""box""></div><div class=""box""></div><div class=""box active-box""></div><div class=""box""></div></div>",,test_stim,1000.0,,test,2.0,simple,,1000.0,,2.0,14.0,,,,,,,,,
219,,html-keyboard-response,219,597880,0.0-3.2-40.2,,"<div class=""container""><div class=""box""></div><div class=""box""></div><div class=""box""></div><div class=""box""></div><div class=""box""></div><div class=""box""></div><div class=""box""></div><div class=""box""></div><div class=""box""></div><div class=""box""></div><div class=""box""></div><div class=""box response-active""></div><div class=""box""></div><div class=""box""></div><div class=""box""></div><div class=""box""></div></div>",[],test_response,5000.0,,test,2.0,simple,['NO_KEYS'],5000.0,,,,,"[2, 7, 15, 14]",[],0.0,,,,,
220,,html-keyboard-response,220,601218,0.0-3.2-41.2,,<div class = centerbox><div class = fixation>+</div></div>,,test_ITI,3332.889978465382,,test,2.0,,,3332.889978465382,,,,,,,,"{'min': 2, 'max': 20, 'mean': 5}",,,,
221,,html-keyboard-response,221,604223,0.0-3.2-42.2-0.2,,<div class = centerbox><div class = fixation>****</div></div>,,test_inter-stimulus,3000.0,,test,2.0,simple,,3000.0,,2.0,,,,,,,,,,
222,,html-keyboard-response,222,605228,0.0-3.2-43.2,,"<div class=""container""><div class=""box active-box""></div><div class=""box""></div><div class=""box""></div><div class=""box""></div><div class=""box""></div><div class=""box""></div><div class=""box""></div><div class=""box""></div><div class=""box""></div><div class=""box""></div><div class=""box""></div><div class=""box""></div><div class=""box""></div><div class=""box""></div><div class=""box""></div><div class=""box""></div></div>",,test_stim,1000.0,,test,2.0,simple,,1000.0,,2.0,0.0,,,,,,,,,
223,,html-keyboard-response,223,608231,0.0-3.2-44.2-0.2,,<div class = centerbox><div class = fixation>****</div></div>,,test_inter-stimulus,3000.0,,test,2.0,simple,,3000.0,,2.0,,,,,,,,,,
224,,html-keyboard-response,224,609238,0.0-3.2-45.2,,"<div class=""container""><div class=""box""></div><div class=""box""></div><div class=""box""></div><div class=""box""></div><div class=""box""></div><div class=""box""></div><div class=""box""></div><div class=""box""></div><div class=""box""></div><div class=""box""></div><div class=""box""></div><div class=""box""></div><div class=""box""></div><div class=""box""></div><div class=""box""></div><div class=""box active-box""></div></div>",,test_stim,1000.0,,test,2.0,simple,,1000.0,,2.0,15.0,,,,,,,,,
225,,html-keyboard-response,225,612244,0.0-3.2-46.2-0.2,,<div class = centerbox><div class = fixation>****</div></div>,,test_inter-stimulus,3000.0,,test,2.0,simple,,3000.0,,2.0,,,,,,,,,,
226,,html-keyboard-response,226,613251,0.0-3.2-47.2,,"<div class=""container""><div class=""box""></div><div class=""box""></div><div class=""box""></div><div class=""box""></div><div class=""box""></div><div class=""box""></div><div class=""box""></div><div class=""box""></div><div class=""box""></div><div class=""box active-box""></div><div class=""box""></div><div class=""box""></div><div class=""box""></div><div class=""box""></div><div class=""box""></div><div class=""box""></div></div>",,test_stim,1000.0,,test,2.0,simple,,1000.0,,2.0,9.0,,,,,,,,,
227,,html-keyboard-response,227,616258,0.0-3.2-48.2-0.2,,<div class = centerbox><div class = fixation>****</div></div>,,test_inter-stimulus,3000.0,,test,2.0,simple,,3000.0,,2.0,,,,,,,,,,
228,,html-keyboard-response,228,617265,0.0-3.2-49.2,,"<div class=""container""><div class=""box""></div><div class=""box""></div><div class=""box""></div><div class=""box""></div><div class=""box""></div><div class=""box""></div><div class=""box""></div><div class=""box""></div><div class=""box""></div><div class=""box""></div><div class=""box""></div><div class=""box""></div><div class=""box""></div><div class=""box""></div><div class=""box active-box""></div><div class=""box""></div></div>",,test_stim,1000.0,,test,2.0,simple,,1000.0,,2.0,14.0,,,,,,,,,
229,,html-keyboard-response,229,622270,0.0-3.2-50.2,,"<div class=""container""><div class=""box""></div><div class=""box""></div><div class=""box""></div><div class=""box""></div><div class=""box""></div><div class=""box response-active""></div><div class=""box""></div><div class=""box""></div><div class=""box""></div><div class=""box""></div><div class=""box""></div><div class=""box""></div><div class=""box""></div><div class=""box""></div><div class=""box""></div><div class=""box""></div></div>",[],test_response,5000.0,,test,2.0,simple,['NO_KEYS'],5000.0,,,,,"[0, 15, 9, 14]",[],0.0,,,,,
230,,html-keyboard-response,230,626979,0.0-3.2-51.2,,<div class = centerbox><div class = fixation>+</div></div>,,test_ITI,4702.872371217446,,test,2.0,,,4702.872371217446,,,,,,,,"{'min': 2, 'max': 20, 'mean': 5}",,,,
231,,html-keyboard-response,231,629984,0.0-3.2-52.2-0.2,,<div class = centerbox><div class = fixation>****</div></div>,,test_inter-stimulus,3000.0,,test,2.0,simple,,3000.0,,2.0,,,,,,,,,,
232,,html-keyboard-response,232,630991,0.0-3.2-53.2,,"<div class=""container""><div class=""box""></div><div class=""box active-box""></div><div class=""box""></div><div class=""box""></div><div class=""box""></div><div class=""box""></div><div class=""box""></div><div class=""box""></div><div class=""box""></div><div class=""box""></div><div class=""box""></div><div class=""box""></div><div class=""box""></div><div class=""box""></div><div class=""box""></div><div class=""box""></div></div>",,test_stim,1000.0,,test,2.0,simple,,1000.0,,2.0,1.0,,,,,,,,,
233,,html-keyboard-response,233,633998,0.0-3.2-54.2-0.2,,<div class = centerbox><div class = fixation>****</div></div>,,test_inter-stimulus,3000.0,,test,2.0,simple,,3000.0,,2.0,,,,,,,,,,
234,,html-keyboard-response,234,635004,0.0-3.2-55.2,,"<div class=""container""><div class=""box""></div><div class=""box""></div><div class=""box""></div><div class=""box""></div><div class=""box""></div><div class=""box""></div><div class=""box active-box""></div><div class=""box""></div><div class=""box""></div><div class=""box""></div><div class=""box""></div><div class=""box""></div><div class=""box""></div><div class=""box""></div><div class=""box""></div><div class=""box""></div></div>",,test_stim,1000.0,,test,2.0,simple,,1000.0,,2.0,6.0,,,,,,,,,
235,,html-keyboard-response,235,638011,0.0-3.2-56.2-0.2,,<div class = centerbox><div class = fixation>****</div></div>,,test_inter-stimulus,3000.0,,test,2.0,simple,,3000.0,,2.0,,,,,,,,,,
236,,html-keyboard-response,236,639012,0.0-3.2-57.2,,"<div class=""container""><div class=""box""></div><div class=""box""></div><div class=""box""></div><div class=""box""></div><div class=""box active-box""></div><div class=""box""></div><div class=""box""></div><div class=""box""></div><div class=""box""></div><div class=""box""></div><div class=""box""></div><div class=""box""></div><div class=""box""></div><div class=""box""></div><div class=""box""></div><div class=""box""></div></div>",,test_stim,1000.0,,test,2.0,simple,,1000.0,,2.0,4.0,,,,,,,,,
237,,html-keyboard-response,237,642019,0.0-3.2-58.2-0.2,,<div class = centerbox><div class = fixation>****</div></div>,,test_inter-stimulus,3000.0,,test,2.0,simple,,3000.0,,2.0,,,,,,,,,,
238,,html-keyboard-response,238,643022,0.0-3.2-59.2,,"<div class=""container""><div class=""box active-box""></div><div class=""box""></div><div class=""box""></div><div class=""box""></div><div class=""box""></div><div class=""box""></div><div class=""box""></div><div class=""box""></div><div class=""box""></div><div class=""box""></div><div class=""box""></div><div class=""box""></div><div class=""box""></div><div class=""box""></div><div class=""box""></div><div class=""box""></div></div>",,test_stim,1000.0,,test,2.0,simple,,1000.0,,2.0,0.0,,,,,,,,,
239,,html-keyboard-response,239,648028,0.0-3.2-60.2,,"<div class=""container""><div class=""box""></div><div class=""box""></div><div class=""box""></div><div class=""box""></div><div class=""box""></div><div class=""box""></div><div class=""box""></div><div class=""box""></div><div class=""box""></div><div class=""box response-active""></div><div class=""box""></div><div class=""box""></div><div class=""box""></div><div class=""box""></div><div class=""box""></div><div class=""box""></div></div>",[],test_response,5000.0,,test,2.0,simple,['NO_KEYS'],5000.0,,,,,"[1, 6, 4, 0]",[],0.0,,,,,
240,,html-keyboard-response,240,650510,0.0-3.2-61.2,,<div class = centerbox><div class = fixation>+</div></div>,,test_ITI,2476.5700150909634,,test,2.0,,,2476.5700150909634,,,,,,,,"{'min': 2, 'max': 20, 'mean': 5}",,,,
241,,html-keyboard-response,241,653517,0.0-3.2-62.2-0.2,,<div class = centerbox><div class = fixation>****</div></div>,,test_inter-stimulus,3000.0,,test,2.0,simple,,3000.0,,2.0,,,,,,,,,,
242,,html-keyboard-response,242,654523,0.0-3.2-63.2,,"<div class=""container""><div class=""box""></div><div class=""box""></div><div class=""box""></div><div class=""box""></div><div class=""box""></div><div class=""box""></div><div class=""box""></div><div class=""box""></div><div class=""box""></div><div class=""box""></div><div class=""box""></div><div class=""box active-box""></div><div class=""box""></div><div class=""box""></div><div class=""box""></div><div class=""box""></div></div>",,test_stim,1000.0,,test,2.0,simple,,1000.0,,2.0,11.0,,,,,,,,,
243,,html-keyboard-response,243,657531,0.0-3.2-64.2-0.2,,<div class = centerbox><div class = fixation>****</div></div>,,test_inter-stimulus,3000.0,,test,2.0,simple,,3000.0,,2.0,,,,,,,,,,
244,,html-keyboard-response,244,658537,0.0-3.2-65.2,,"<div class=""container""><div class=""box""></div><div class=""box""></div><div class=""box""></div><div class=""box""></div><div class=""box""></div><div class=""box""></div><div class=""box""></div><div class=""box""></div><div class=""box""></div><div class=""box""></div><div class=""box""></div><div class=""box""></div><div class=""box""></div><div class=""box active-box""></div><div class=""box""></div><div class=""box""></div></div>",,test_stim,1000.0,,test,2.0,simple,,1000.0,,2.0,13.0,,,,,,,,,
245,,html-keyboard-response,245,661544,0.0-3.2-66.2-0.2,,<div class = centerbox><div class = fixation>****</div></div>,,test_inter-stimulus,3000.0,,test,2.0,simple,,3000.0,,2.0,,,,,,,,,,
246,,html-keyboard-response,246,662550,0.0-3.2-67.2,,"<div class=""container""><div class=""box""></div><div class=""box""></div><div class=""box""></div><div class=""box""></div><div class=""box""></div><div class=""box""></div><div class=""box""></div><div class=""box""></div><div class=""box""></div><div class=""box active-box""></div><div class=""box""></div><div class=""box""></div><div class=""box""></div><div class=""box""></div><div class=""box""></div><div class=""box""></div></div>",,test_stim,1000.0,,test,2.0,simple,,1000.0,,2.0,9.0,,,,,,,,,
247,,html-keyboard-response,247,665554,0.0-3.2-68.2-0.2,,<div class = centerbox><div class = fixation>****</div></div>,,test_inter-stimulus,3000.0,,test,2.0,simple,,3000.0,,2.0,,,,,,,,,,
248,,html-keyboard-response,248,666561,0.0-3.2-69.2,,"<div class=""container""><div class=""box""></div><div class=""box""></div><div class=""box""></div><div class=""box active-box""></div><div class=""box""></div><div class=""box""></div><div class=""box""></div><div class=""box""></div><div class=""box""></div><div class=""box""></div><div class=""box""></div><div class=""box""></div><div class=""box""></div><div class=""box""></div><div class=""box""></div><div class=""box""></div></div>",,test_stim,1000.0,,test,2.0,simple,,1000.0,,2.0,3.0,,,,,,,,,
249,,html-keyboard-response,249,671568,0.0-3.2-70.2,,"<div class=""container""><div class=""box""></div><div class=""box""></div><div class=""box""></div><div class=""box""></div><div class=""box""></div><div class=""box""></div><div class=""box""></div><div class=""box""></div><div class=""box""></div><div class=""box""></div><div class=""box response-active""></div><div class=""box""></div><div class=""box""></div><div class=""box""></div><div class=""box""></div><div class=""box""></div></div>",[],test_response,5000.0,,test,2.0,simple,['NO_KEYS'],5000.0,,,,,"[11, 13, 9, 3]",[],0.0,,,,,
250,,html-keyboard-response,250,674992,0.0-3.2-71.2,,<div class = centerbox><div class = fixation>+</div></div>,,test_ITI,3419.4507255865938,,test,2.0,,,3419.4507255865938,,,,,,,,"{'min': 2, 'max': 20, 'mean': 5}",,,,
251,,html-keyboard-response,251,677995,0.0-3.2-72.2-0.2,,<div class = centerbox><div class = fixation>****</div></div>,,test_inter-stimulus,3000.0,,test,2.0,simple,,3000.0,,2.0,,,,,,,,,,
252,,html-keyboard-response,252,679002,0.0-3.2-73.2,,"<div class=""container""><div class=""box""></div><div class=""box""></div><div class=""box""></div><div class=""box""></div><div class=""box""></div><div class=""box""></div><div class=""box""></div><div class=""box active-box""></div><div class=""box""></div><div class=""box""></div><div class=""box""></div><div class=""box""></div><div class=""box""></div><div class=""box""></div><div class=""box""></div><div class=""box""></div></div>",,test_stim,1000.0,,test,2.0,simple,,1000.0,,2.0,7.0,,,,,,,,,
253,,html-keyboard-response,253,682008,0.0-3.2-74.2-0.2,,<div class = centerbox><div class = fixation>****</div></div>,,test_inter-stimulus,3000.0,,test,2.0,simple,,3000.0,,2.0,,,,,,,,,,
254,,html-keyboard-response,254,683013,0.0-3.2-75.2,,"<div class=""container""><div class=""box""></div><div class=""box""></div><div class=""box""></div><div class=""box""></div><div class=""box""></div><div class=""box""></div><div class=""box""></div><div class=""box active-box""></div><div class=""box""></div><div class=""box""></div><div class=""box""></div><div class=""box""></div><div class=""box""></div><div class=""box""></div><div class=""box""></div><div class=""box""></div></div>",,test_stim,1000.0,,test,2.0,simple,,1000.0,,2.0,7.0,,,,,,,,,
255,,html-keyboard-response,255,686020,0.0-3.2-76.2-0.2,,<div class = centerbox><div class = fixation>****</div></div>,,test_inter-stimulus,3000.0,,test,2.0,simple,,3000.0,,2.0,,,,,,,,,,
256,,html-keyboard-response,256,687027,0.0-3.2-77.2,,"<div class=""container""><div class=""box active-box""></div><div class=""box""></div><div class=""box""></div><div class=""box""></div><div class=""box""></div><div class=""box""></div><div class=""box""></div><div class=""box""></div><div class=""box""></div><div class=""box""></div><div class=""box""></div><div class=""box""></div><div class=""box""></div><div class=""box""></div><div class=""box""></div><div class=""box""></div></div>",,test_stim,1000.0,,test,2.0,simple,,1000.0,,2.0,0.0,,,,,,,,,
257,,html-keyboard-response,257,690033,0.0-3.2-78.2-0.2,,<div class = centerbox><div class = fixation>****</div></div>,,test_inter-stimulus,3000.0,,test,2.0,simple,,3000.0,,2.0,,,,,,,,,,
258,,html-keyboard-response,258,691039,0.0-3.2-79.2,,"<div class=""container""><div class=""box""></div><div class=""box""></div><div class=""box""></div><div class=""box active-box""></div><div class=""box""></div><div class=""box""></div><div class=""box""></div><div class=""box""></div><div class=""box""></div><div class=""box""></div><div class=""box""></div><div class=""box""></div><div class=""box""></div><div class=""box""></div><div class=""box""></div><div class=""box""></div></div>",,test_stim,1000.0,,test,2.0,simple,,1000.0,,2.0,3.0,,,,,,,,,
259,,html-keyboard-response,259,696046,0.0-3.2-80.2,,"<div class=""container""><div class=""box""></div><div class=""box""></div><div class=""box""></div><div class=""box""></div><div class=""box""></div><div class=""box""></div><div class=""box""></div><div class=""box""></div><div class=""box""></div><div class=""box""></div><div class=""box""></div><div class=""box""></div><div class=""box response-active""></div><div class=""box""></div><div class=""box""></div><div class=""box""></div></div>",[],test_response,5000.0,,test,2.0,simple,['NO_KEYS'],5000.0,,,,,"[7, 7, 0, 3]",[],0.0,,,,,
260,,html-keyboard-response,260,704455,0.0-3.2-81.2,,<div class = centerbox><div class = fixation>+</div></div>,,test_ITI,8402.493156385577,,test,2.0,,,8402.493156385577,,,,,,,,"{'min': 2, 'max': 20, 'mean': 5}",,,,
261,,html-keyboard-response,261,721510,0.0-4.0-0.0,17053.0,"<div class = bigbox><div class = picture_box><p class = block-text>
    <div class = centerbox><p class = center-block-text>Moving to next sub-task.</p>
     <p class=""block-text""><b>Sub-task #2</b></p>
    <p class=""block-text"">Place your fingers on the arrow keys.</p>
    <p class=""block-text"">
      During this sub-task, you will first encounter an 8x8 grid filled with black and grey cells. You have to determine if the grid is symmetric or not. 
      Press the <b>p key</b> if the grid is symmetric and press the <b>o key</b> if it is not.
    </p>
    <p class=""block-text"">
      When you make a response, a new 8x8 grid will immediately appear, and you should complete as many correct symmetry judgments as you can. Then a single 4x4 grid will appear. This grid will have one cell colored black. Try to remember the location of the black cell.
    </p>
    <p class=""block-text"">
