,success,trial_type,trial_index,time_elapsed,internal_node_id,rt,stimulus,response,trial_id,trial_duration,view_history,exp_id,exp_stage,block_num,stimulus_duration,CTI,cue_location,stim_location,condition,correct_response,choices,correct_trial,ITIParams,current_question,current_key_answer,attention_check_percent
0,True,fullscreen,0,1663,0.0-0.0,,,,,,,,,,,,,,,,,,,,,
1,,html-keyboard-response,1,2001,0.0-1.0-0.0,336.0,"<div class = centerbox><p class = center-block-text>
    
  <p class=""center-block-text"">
    Welcome! This experiment will take around 15 minutes.
  </p>
  <p class=""center-block-text"">
    To avoid technical issues, please keep the experiment tab (on Chrome or Firefox) active and in fullscreen mode for the whole duration of each task.
  </p>
  <p class=""center-block-text""> Press <i>enter</i> to begin.</p>

    </p></div>",enter,instruction_feedback,180000.0,,,,,,,,,,,,,,,,
2,,instructions,2,3419,0.0-1.0-1.0,1416.0,,,instructions,,"[{'page_index': 0, 'viewing_time': 1245}, {'page_index': 1, 'viewing_time': 171}]",spatial_cueing_rdoc,,,,,,,,,,,,,,
3,,html-keyboard-response,3,4201,0.0-2.0-0.0,781.0,"<div class = bigbox><div class = picture_box><p class = block-text>
    <div class = centerbox><p class = center-block-text>Press <i>enter</i> to begin practice.</p></div>
    </font></p></div></div>",enter,practice_feedback,60000.0,,,practice,0.0,,,,,,,,,,,,
4,,html-keyboard-response,4,5710,0.0-2.0-1.0,,"<div class = bigbox><div id=left_box></div></div><div class = bigbox><div id=right_box></div></div><div class = centerbox><div class = fixation style=""font-size:100px"">+</div></div>",,practice_fixation,500.0,,,practice,0.0,500.0,,,,,,,,,,,
5,,html-keyboard-response,5,6222,0.0-2.0-2.0,,"<div class = bigbox><div id=right_box style=""border-width:15px""></div></div><div class = bigbox><div id=left_box></div></div><div class = centerbox><div class = fixation style=""font-size:100px"">+</div></div>",,practice_cue,500.0,,,practice,0.0,500.0,,,,,,,,,,,
6,,html-keyboard-response,6,7227,0.0-2.0-3.0,,"<div class = bigbox><div id=left_box></div></div><div class = bigbox><div id=right_box></div></div><div class = centerbox><div class = fixation style=""font-size:100px"">+</div></div>",,practice_CTI,1000.0,,,practice,0.0,1000.0,1000.0,,,,,,,,,,
7,,html-keyboard-response,7,8735,0.0-2.0-4.0,406.0,"<div class = bigbox><div id=right_box><div class='center-text star'>*</div></div></div><div class = bigbox><div id=left_box></div></div><div class = centerbox><div class = fixation style=""font-size:100px"">+</div></div>",.,practice_trial,1500.0,,,practice,0.0,1000.0,,right,right,valid,.,"[',', '.']",1,,,,
8,,html-keyboard-response,8,9239,0.0-2.0-5.0,,"<div class = fb_box><div class = 'center-text'><font size =20>Correct!</font></div></div><div class = bigbox><div id=left_box></div></div><div class = bigbox><div id=right_box></div></div><div class = centerbox><div class = fixation style=""font-size:100px"">+</div></div>",,practice_feedback,500.0,,,practice,,500.0,,,,,,,,,,,
9,,html-keyboard-response,9,9401,0.0-2.0-6.0,,"<div class = bigbox><div id=left_box></div></div><div class = bigbox><div id=right_box></div></div><div class = centerbox><div class = fixation style=""font-size:100px"">+</div></div>",,practice_ITI,156.90856429652507,,,practice,0.0,156.90856429652507,,,,,,,,"{'min': 0, 'max': 5, 'mean': 0.5}",,,
10,,html-keyboard-response,10,9905,0.0-2.0-7.0,,"<div class = bigbox><div id=left_box></div></div><div class = bigbox><div id=right_box></div></div><div class = centerbox><div class = fixation style=""font-size:100px"">+</div></div>",,practice_fixation,500.0,,,practice,0.0,500.0,,,,,,,,,,,
11,,html-keyboard-response,11,10410,0.0-2.0-8.0,,"<div class = bigbox><div id=right_box style=""border-width:15px""></div></div><div class = bigbox><div id=left_box style=""border-width:15px""></div></div><div class = centerbox><div class = fixation style=""font-size:100px"">+</div></div>",,practice_cue,500.0,,,practice,0.0,500.0,,,,,,,,,,,
12,,html-keyboard-response,12,10963,0.0-2.0-9.0,,"<div class = bigbox><div id=left_box></div></div><div class = bigbox><div id=right_box></div></div><div class = centerbox><div class = fixation style=""font-size:100px"">+</div></div>",,practice_CTI,550.0,,,practice,0.0,550.0,550.0,,,,,,,,,,
13,,html-keyboard-response,13,12469,0.0-2.0-10.0,364.0,"<div class = bigbox><div id=right_box><div class='center-text star'>*</div></div></div><div class = bigbox><div id=left_box></div></div><div class = centerbox><div class = fixation style=""font-size:100px"">+</div></div>",.,practice_trial,1500.0,,,practice,0.0,1000.0,,both,right,doublecue,.,"[',', '.']",1,,,,
14,,html-keyboard-response,14,12976,0.0-2.0-11.0,,"<div class = fb_box><div class = 'center-text'><font size =20>Correct!</font></div></div><div class = bigbox><div id=left_box></div></div><div class = bigbox><div id=right_box></div></div><div class = centerbox><div class = fixation style=""font-size:100px"">+</div></div>",,practice_feedback,500.0,,,practice,,500.0,,,,,,,,,,,
15,,html-keyboard-response,15,13077,0.0-2.0-12.0,,"<div class = bigbox><div id=left_box></div></div><div class = bigbox><div id=right_box></div></div><div class = centerbox><div class = fixation style=""font-size:100px"">+</div></div>",,practice_ITI,95.54923001175709,,,practice,0.0,95.54923001175709,,,,,,,,"{'min': 0, 'max': 5, 'mean': 0.5}",,,
16,,html-keyboard-response,16,13582,0.0-2.0-13.0,,"<div class = bigbox><div id=left_box></div></div><div class = bigbox><div id=right_box></div></div><div class = centerbox><div class = fixation style=""font-size:100px"">+</div></div>",,practice_fixation,500.0,,,practice,0.0,500.0,,,,,,,,,,,
17,,html-keyboard-response,17,14086,0.0-2.0-14.0,,"<div class = bigbox><div id=right_box style=""border-width:15px""></div></div><div class = bigbox><div id=left_box style=""border-width:15px""></div></div><div class = centerbox><div class = fixation style=""font-size:100px"">+</div></div>",,practice_cue,500.0,,,practice,0.0,500.0,,,,,,,,,,,
18,,html-keyboard-response,18,14189,0.0-2.0-15.0,,"<div class = bigbox><div id=left_box></div></div><div class = bigbox><div id=right_box></div></div><div class = centerbox><div class = fixation style=""font-size:100px"">+</div></div>",,practice_CTI,100.0,,,practice,0.0,100.0,100.0,,,,,,,,,,
19,,html-keyboard-response,19,15696,0.0-2.0-16.0,495.0,"<div class = bigbox><div id=right_box><div class='center-text star'>*</div></div></div><div class = bigbox><div id=left_box></div></div><div class = centerbox><div class = fixation style=""font-size:100px"">+</div></div>",.,practice_trial,1500.0,,,practice,0.0,1000.0,,both,right,doublecue,.,"[',', '.']",1,,,,
20,,html-keyboard-response,20,16200,0.0-2.0-17.0,,"<div class = fb_box><div class = 'center-text'><font size =20>Correct!</font></div></div><div class = bigbox><div id=left_box></div></div><div class = bigbox><div id=right_box></div></div><div class = centerbox><div class = fixation style=""font-size:100px"">+</div></div>",,practice_feedback,500.0,,,practice,,500.0,,,,,,,,,,,
21,,html-keyboard-response,21,16368,0.0-2.0-18.0,,"<div class = bigbox><div id=left_box></div></div><div class = bigbox><div id=right_box></div></div><div class = centerbox><div class = fixation style=""font-size:100px"">+</div></div>",,practice_ITI,162.4828351638947,,,practice,0.0,162.4828351638947,,,,,,,,"{'min': 0, 'max': 5, 'mean': 0.5}",,,
22,,html-keyboard-response,22,16872,0.0-2.0-19.0,,"<div class = bigbox><div id=left_box></div></div><div class = bigbox><div id=right_box></div></div><div class = centerbox><div class = fixation style=""font-size:100px"">+</div></div>",,practice_fixation,500.0,,,practice,0.0,500.0,,,,,,,,,,,
23,,html-keyboard-response,23,17378,0.0-2.0-20.0,,"<div class = bigbox><div id=left_box style=""border-width:15px""></div></div><div class = bigbox><div id=right_box></div></div><div class = centerbox><div class = fixation style=""font-size:100px"">+</div></div>",,practice_cue,500.0,,,practice,0.0,500.0,,,,,,,,,,,
24,,html-keyboard-response,24,17484,0.0-2.0-21.0,,"<div class = bigbox><div id=left_box></div></div><div class = bigbox><div id=right_box></div></div><div class = centerbox><div class = fixation style=""font-size:100px"">+</div></div>",,practice_CTI,100.0,,,practice,0.0,100.0,100.0,,,,,,,,,,
25,,html-keyboard-response,25,18991,0.0-2.0-22.0,356.0,"<div class = bigbox><div id=left_box><div class='center-text star'>*</div></div></div><div class = bigbox><div id=right_box></div></div><div class = centerbox><div class = fixation style=""font-size:100px"">+</div></div>",",",practice_trial,1500.0,,,practice,0.0,1000.0,,left,left,valid,",","[',', '.']",1,,,,
26,,html-keyboard-response,26,19497,0.0-2.0-23.0,,"<div class = fb_box><div class = 'center-text'><font size =20>Correct!</font></div></div><div class = bigbox><div id=left_box></div></div><div class = bigbox><div id=right_box></div></div><div class = centerbox><div class = fixation style=""font-size:100px"">+</div></div>",,practice_feedback,500.0,,,practice,,500.0,,,,,,,,,,,
27,,html-keyboard-response,27,19659,0.0-2.0-24.0,,"<div class = bigbox><div id=left_box></div></div><div class = bigbox><div id=right_box></div></div><div class = centerbox><div class = fixation style=""font-size:100px"">+</div></div>",,practice_ITI,157.0723730562613,,,practice,0.0,157.0723730562613,,,,,,,,"{'min': 0, 'max': 5, 'mean': 0.5}",,,
28,,html-keyboard-response,28,20165,0.0-2.0-25.0,,"<div class = bigbox><div id=left_box></div></div><div class = bigbox><div id=right_box></div></div><div class = centerbox><div class = fixation style=""font-size:100px"">+</div></div>",,practice_fixation,500.0,,,practice,0.0,500.0,,,,,,,,,,,
29,,html-keyboard-response,29,20668,0.0-2.0-26.0,,"<div class = bigbox><div id=right_box></div></div><div class = bigbox><div id=left_box></div></div><div class = centerbox><div class = fixation style=""font-size:100px"">+</div></div>",,practice_cue,500.0,,,practice,0.0,500.0,,,,,,,,,,,
30,,html-keyboard-response,30,21221,0.0-2.0-27.0,,"<div class = bigbox><div id=left_box></div></div><div class = bigbox><div id=right_box></div></div><div class = centerbox><div class = fixation style=""font-size:100px"">+</div></div>",,practice_CTI,550.0,,,practice,0.0,550.0,550.0,,,,,,,,,,
31,,html-keyboard-response,31,22723,0.0-2.0-28.0,351.0,"<div class = bigbox><div id=right_box><div class='center-text star'>*</div></div></div><div class = bigbox><div id=left_box></div></div><div class = centerbox><div class = fixation style=""font-size:100px"">+</div></div>",.,practice_trial,1500.0,,,practice,0.0,1000.0,,none,right,nocue,.,"[',', '.']",1,,,,
32,,html-keyboard-response,32,23227,0.0-2.0-29.0,,"<div class = fb_box><div class = 'center-text'><font size =20>Correct!</font></div></div><div class = bigbox><div id=left_box></div></div><div class = bigbox><div id=right_box></div></div><div class = centerbox><div class = fixation style=""font-size:100px"">+</div></div>",,practice_feedback,500.0,,,practice,,500.0,,,,,,,,,,,
33,,html-keyboard-response,33,24614,0.0-2.0-30.0,,"<div class = bigbox><div id=left_box></div></div><div class = bigbox><div id=right_box></div></div><div class = centerbox><div class = fixation style=""font-size:100px"">+</div></div>",,practice_ITI,1380.6650906401808,,,practice,0.0,1380.6650906401808,,,,,,,,"{'min': 0, 'max': 5, 'mean': 0.5}",,,
34,,html-keyboard-response,34,25119,0.0-2.0-31.0,,"<div class = bigbox><div id=left_box></div></div><div class = bigbox><div id=right_box></div></div><div class = centerbox><div class = fixation style=""font-size:100px"">+</div></div>",,practice_fixation,500.0,,,practice,0.0,500.0,,,,,,,,,,,
35,,html-keyboard-response,35,25625,0.0-2.0-32.0,,"<div class = bigbox><div id=left_box></div></div><div class = bigbox><div id=right_box style=""border-width:15px""></div></div><div class = centerbox><div class = fixation style=""font-size:100px"">+</div></div>",,practice_cue,500.0,,,practice,0.0,500.0,,,,,,,,,,,
36,,html-keyboard-response,36,26631,0.0-2.0-33.0,,"<div class = bigbox><div id=left_box></div></div><div class = bigbox><div id=right_box></div></div><div class = centerbox><div class = fixation style=""font-size:100px"">+</div></div>",,practice_CTI,1000.0,,,practice,0.0,1000.0,1000.0,,,,,,,,,,
37,,html-keyboard-response,37,28138,0.0-2.0-34.0,394.0,"<div class = bigbox><div id=left_box><div class='center-text star'>*</div></div></div><div class = bigbox><div id=right_box></div></div><div class = centerbox><div class = fixation style=""font-size:100px"">+</div></div>",.,practice_trial,1500.0,,,practice,0.0,1000.0,,right,left,invalid,",","[',', '.']",0,,,,
38,,html-keyboard-response,38,28642,0.0-2.0-35.0,,"<div class = fb_box><div class = 'center-text'><font size =20>Incorrect</font></div></div><div class = bigbox><div id=left_box></div></div><div class = bigbox><div id=right_box></div></div><div class = centerbox><div class = fixation style=""font-size:100px"">+</div></div>",,practice_feedback,500.0,,,practice,,500.0,,,,,,,,,,,
39,,html-keyboard-response,39,28648,0.0-2.0-36.0,,"<div class = bigbox><div id=left_box></div></div><div class = bigbox><div id=right_box></div></div><div class = centerbox><div class = fixation style=""font-size:100px"">+</div></div>",,practice_ITI,3.0106564857526577,,,practice,0.0,3.0106564857526577,,,,,,,,"{'min': 0, 'max': 5, 'mean': 0.5}",,,
40,,html-keyboard-response,40,29151,0.0-2.0-37.0,,"<div class = bigbox><div id=left_box></div></div><div class = bigbox><div id=right_box></div></div><div class = centerbox><div class = fixation style=""font-size:100px"">+</div></div>",,practice_fixation,500.0,,,practice,0.0,500.0,,,,,,,,,,,
41,,html-keyboard-response,41,29655,0.0-2.0-38.0,,"<div class = bigbox><div id=right_box></div></div><div class = bigbox><div id=left_box></div></div><div class = centerbox><div class = fixation style=""font-size:100px"">+</div></div>",,practice_cue,500.0,,,practice,0.0,500.0,,,,,,,,,,,
42,,html-keyboard-response,42,29759,0.0-2.0-39.0,,"<div class = bigbox><div id=left_box></div></div><div class = bigbox><div id=right_box></div></div><div class = centerbox><div class = fixation style=""font-size:100px"">+</div></div>",,practice_CTI,100.0,,,practice,0.0,100.0,100.0,,,,,,,,,,
43,,html-keyboard-response,43,31264,0.0-2.0-40.0,,"<div class = bigbox><div id=right_box><div class='center-text star'>*</div></div></div><div class = bigbox><div id=left_box></div></div><div class = centerbox><div class = fixation style=""font-size:100px"">+</div></div>",,practice_trial,1500.0,,,practice,0.0,1000.0,,none,right,nocue,.,"[',', '.']",0,,,,
44,,html-keyboard-response,44,31769,0.0-2.0-41.0,,"<div class = fb_box><div class = 'center-text'><font size =20>Respond Faster!</font></div></div><div class = bigbox><div id=left_box></div></div><div class = bigbox><div id=right_box></div></div><div class = centerbox><div class = fixation style=""font-size:100px"">+</div></div>",,practice_feedback,500.0,,,practice,,500.0,,,,,,,,,,,
45,,html-keyboard-response,45,32154,0.0-2.0-42.0,,"<div class = bigbox><div id=left_box></div></div><div class = bigbox><div id=right_box></div></div><div class = centerbox><div class = fixation style=""font-size:100px"">+</div></div>",,practice_ITI,382.79550612811965,,,practice,0.0,382.79550612811965,,,,,,,,"{'min': 0, 'max': 5, 'mean': 0.5}",,,
46,,html-keyboard-response,46,32658,0.0-2.0-43.0,,"<div class = bigbox><div id=left_box></div></div><div class = bigbox><div id=right_box></div></div><div class = centerbox><div class = fixation style=""font-size:100px"">+</div></div>",,practice_fixation,500.0,,,practice,0.0,500.0,,,,,,,,,,,
47,,html-keyboard-response,47,33162,0.0-2.0-44.0,,"<div class = bigbox><div id=left_box></div></div><div class = bigbox><div id=right_box></div></div><div class = centerbox><div class = fixation style=""font-size:100px"">+</div></div>",,practice_cue,500.0,,,practice,0.0,500.0,,,,,,,,,,,
48,,html-keyboard-response,48,33716,0.0-2.0-45.0,,"<div class = bigbox><div id=left_box></div></div><div class = bigbox><div id=right_box></div></div><div class = centerbox><div class = fixation style=""font-size:100px"">+</div></div>",,practice_CTI,550.0,,,practice,0.0,550.0,550.0,,,,,,,,,,
49,,html-keyboard-response,49,35223,0.0-2.0-46.0,,"<div class = bigbox><div id=left_box><div class='center-text star'>*</div></div></div><div class = bigbox><div id=right_box></div></div><div class = centerbox><div class = fixation style=""font-size:100px"">+</div></div>",,practice_trial,1500.0,,,practice,0.0,1000.0,,none,left,nocue,",","[',', '.']",0,,,,
50,,html-keyboard-response,50,35727,0.0-2.0-47.0,,"<div class = fb_box><div class = 'center-text'><font size =20>Respond Faster!</font></div></div><div class = bigbox><div id=left_box></div></div><div class = bigbox><div id=right_box></div></div><div class = centerbox><div class = fixation style=""font-size:100px"">+</div></div>",,practice_feedback,500.0,,,practice,,500.0,,,,,,,,,,,
51,,html-keyboard-response,51,35994,0.0-2.0-48.0,,"<div class = bigbox><div id=left_box></div></div><div class = bigbox><div id=right_box></div></div><div class = centerbox><div class = fixation style=""font-size:100px"">+</div></div>",,practice_ITI,260.40256787192124,,,practice,0.0,260.40256787192124,,,,,,,,"{'min': 0, 'max': 5, 'mean': 0.5}",,,
52,,html-keyboard-response,52,36501,0.0-2.0-49.0,,"<div class = bigbox><div id=left_box></div></div><div class = bigbox><div id=right_box></div></div><div class = centerbox><div class = fixation style=""font-size:100px"">+</div></div>",,practice_fixation,500.0,,,practice,0.0,500.0,,,,,,,,,,,
53,,html-keyboard-response,53,37004,0.0-2.0-50.0,,"<div class = bigbox><div id=left_box style=""border-width:15px""></div></div><div class = bigbox><div id=right_box style=""border-width:15px""></div></div><div class = centerbox><div class = fixation style=""font-size:100px"">+</div></div>",,practice_cue,500.0,,,practice,0.0,500.0,,,,,,,,,,,
54,,html-keyboard-response,54,38010,0.0-2.0-51.0,,"<div class = bigbox><div id=left_box></div></div><div class = bigbox><div id=right_box></div></div><div class = centerbox><div class = fixation style=""font-size:100px"">+</div></div>",,practice_CTI,1000.0,,,practice,0.0,1000.0,1000.0,,,,,,,,,,
55,,html-keyboard-response,55,39513,0.0-2.0-52.0,,"<div class = bigbox><div id=left_box><div class='center-text star'>*</div></div></div><div class = bigbox><div id=right_box></div></div><div class = centerbox><div class = fixation style=""font-size:100px"">+</div></div>",,practice_trial,1500.0,,,practice,0.0,1000.0,,both,left,doublecue,",","[',', '.']",0,,,,
56,,html-keyboard-response,56,40016,0.0-2.0-53.0,,"<div class = fb_box><div class = 'center-text'><font size =20>Respond Faster!</font></div></div><div class = bigbox><div id=left_box></div></div><div class = bigbox><div id=right_box></div></div><div class = centerbox><div class = fixation style=""font-size:100px"">+</div></div>",,practice_feedback,500.0,,,practice,,500.0,,,,,,,,,,,
57,,html-keyboard-response,57,40855,0.0-2.0-54.0,,"<div class = bigbox><div id=left_box></div></div><div class = bigbox><div id=right_box></div></div><div class = centerbox><div class = fixation style=""font-size:100px"">+</div></div>",,practice_ITI,832.463264621099,,,practice,0.0,832.463264621099,,,,,,,,"{'min': 0, 'max': 5, 'mean': 0.5}",,,
58,,html-keyboard-response,58,41357,0.0-2.0-55.0,,"<div class = bigbox><div id=left_box></div></div><div class = bigbox><div id=right_box></div></div><div class = centerbox><div class = fixation style=""font-size:100px"">+</div></div>",,practice_fixation,500.0,,,practice,0.0,500.0,,,,,,,,,,,
59,,html-keyboard-response,59,41863,0.0-2.0-56.0,,"<div class = bigbox><div id=right_box></div></div><div class = bigbox><div id=left_box></div></div><div class = centerbox><div class = fixation style=""font-size:100px"">+</div></div>",,practice_cue,500.0,,,practice,0.0,500.0,,,,,,,,,,,
60,,html-keyboard-response,60,42870,0.0-2.0-57.0,,"<div class = bigbox><div id=left_box></div></div><div class = bigbox><div id=right_box></div></div><div class = centerbox><div class = fixation style=""font-size:100px"">+</div></div>",,practice_CTI,1000.0,,,practice,0.0,1000.0,1000.0,,,,,,,,,,
61,,html-keyboard-response,61,44374,0.0-2.0-58.0,,"<div class = bigbox><div id=right_box><div class='center-text star'>*</div></div></div><div class = bigbox><div id=left_box></div></div><div class = centerbox><div class = fixation style=""font-size:100px"">+</div></div>",,practice_trial,1500.0,,,practice,0.0,1000.0,,none,right,nocue,.,"[',', '.']",0,,,,
62,,html-keyboard-response,62,44878,0.0-2.0-59.0,,"<div class = fb_box><div class = 'center-text'><font size =20>Respond Faster!</font></div></div><div class = bigbox><div id=left_box></div></div><div class = bigbox><div id=right_box></div></div><div class = centerbox><div class = fixation style=""font-size:100px"">+</div></div>",,practice_feedback,500.0,,,practice,,500.0,,,,,,,,,,,
63,,html-keyboard-response,63,44943,0.0-2.0-60.0,,"<div class = bigbox><div id=left_box></div></div><div class = bigbox><div id=right_box></div></div><div class = centerbox><div class = fixation style=""font-size:100px"">+</div></div>",,practice_ITI,61.202891413855085,,,practice,0.0,61.202891413855085,,,,,,,,"{'min': 0, 'max': 5, 'mean': 0.5}",,,
64,,html-keyboard-response,64,45449,0.0-2.0-61.0,,"<div class = bigbox><div id=left_box></div></div><div class = bigbox><div id=right_box></div></div><div class = centerbox><div class = fixation style=""font-size:100px"">+</div></div>",,practice_fixation,500.0,,,practice,0.0,500.0,,,,,,,,,,,
65,,html-keyboard-response,65,45955,0.0-2.0-62.0,,"<div class = bigbox><div id=left_box style=""border-width:15px""></div></div><div class = bigbox><div id=right_box style=""border-width:15px""></div></div><div class = centerbox><div class = fixation style=""font-size:100px"">+</div></div>",,practice_cue,500.0,,,practice,0.0,500.0,,,,,,,,,,,
66,,html-keyboard-response,66,46062,0.0-2.0-63.0,,"<div class = bigbox><div id=left_box></div></div><div class = bigbox><div id=right_box></div></div><div class = centerbox><div class = fixation style=""font-size:100px"">+</div></div>",,practice_CTI,100.0,,,practice,0.0,100.0,100.0,,,,,,,,,,
67,,html-keyboard-response,67,47567,0.0-2.0-64.0,,"<div class = bigbox><div id=left_box><div class='center-text star'>*</div></div></div><div class = bigbox><div id=right_box></div></div><div class = centerbox><div class = fixation style=""font-size:100px"">+</div></div>",,practice_trial,1500.0,,,practice,0.0,1000.0,,both,left,doublecue,",","[',', '.']",0,,,,
68,,html-keyboard-response,68,48070,0.0-2.0-65.0,,"<div class = fb_box><div class = 'center-text'><font size =20>Respond Faster!</font></div></div><div class = bigbox><div id=left_box></div></div><div class = bigbox><div id=right_box></div></div><div class = centerbox><div class = fixation style=""font-size:100px"">+</div></div>",,practice_feedback,500.0,,,practice,,500.0,,,,,,,,,,,
69,,html-keyboard-response,69,48294,0.0-2.0-66.0,,"<div class = bigbox><div id=left_box></div></div><div class = bigbox><div id=right_box></div></div><div class = centerbox><div class = fixation style=""font-size:100px"">+</div></div>",,practice_ITI,217.03859005405295,,,practice,0.0,217.03859005405295,,,,,,,,"{'min': 0, 'max': 5, 'mean': 0.5}",,,
70,,html-keyboard-response,70,48799,0.0-2.0-67.0,,"<div class = bigbox><div id=left_box></div></div><div class = bigbox><div id=right_box></div></div><div class = centerbox><div class = fixation style=""font-size:100px"">+</div></div>",,practice_fixation,500.0,,,practice,0.0,500.0,,,,,,,,,,,
71,,html-keyboard-response,71,49304,0.0-2.0-68.0,,"<div class = bigbox><div id=right_box style=""border-width:15px""></div></div><div class = bigbox><div id=left_box></div></div><div class = centerbox><div class = fixation style=""font-size:100px"">+</div></div>",,practice_cue,500.0,,,practice,0.0,500.0,,,,,,,,,,,
72,,html-keyboard-response,72,49859,0.0-2.0-69.0,,"<div class = bigbox><div id=left_box></div></div><div class = bigbox><div id=right_box></div></div><div class = centerbox><div class = fixation style=""font-size:100px"">+</div></div>",,practice_CTI,550.0,,,practice,0.0,550.0,550.0,,,,,,,,,,
73,,html-keyboard-response,73,51366,0.0-2.0-70.0,,"<div class = bigbox><div id=right_box><div class='center-text star'>*</div></div></div><div class = bigbox><div id=left_box></div></div><div class = centerbox><div class = fixation style=""font-size:100px"">+</div></div>",,practice_trial,1500.0,,,practice,0.0,1000.0,,right,right,valid,.,"[',', '.']",0,,,,
74,,html-keyboard-response,74,51869,0.0-2.0-71.0,,"<div class = fb_box><div class = 'center-text'><font size =20>Respond Faster!</font></div></div><div class = bigbox><div id=left_box></div></div><div class = bigbox><div id=right_box></div></div><div class = centerbox><div class = fixation style=""font-size:100px"">+</div></div>",,practice_feedback,500.0,,,practice,,500.0,,,,,,,,,,,
75,,html-keyboard-response,75,52679,0.0-2.0-72.0,,"<div class = bigbox><div id=left_box></div></div><div class = bigbox><div id=right_box></div></div><div class = centerbox><div class = fixation style=""font-size:100px"">+</div></div>",,practice_ITI,803.6431277479703,,,practice,0.0,803.6431277479703,,,,,,,,"{'min': 0, 'max': 5, 'mean': 0.5}",,,
76,,html-keyboard-response,76,66174,0.0-2.1-0.1,13492.0,"<div class = bigbox><div class = picture_box><p class = block-text>
    <div class = centerbox><p class = block-text>Please take this time to read your feedback! This screen will advance automatically in 1 minute.</p>
        <p class=""block-text"">Your accuracy is low. Remember: </p>
        <p class='block-text'>Press your <b>index finger</b> if the star (*) appears in the left box and your <b>middle finger</b> if the star (*) appears in the right box.</p>
      
        <p class=""block-text"">You have not been responding to some trials. Please respond on every trial that requires a response.</p>
      <p class=""block-text"">We are now going to repeat the practice round.</p><p class=""block-text"">Press <i>enter</i> to begin.</p></div>
    </font></p></div></div>",enter,practice_feedback,60000.0,,,practice,1.0,,,,,,,,,,,,
77,,html-keyboard-response,77,67680,0.0-2.1-1.1,,"<div class = bigbox><div id=left_box></div></div><div class = bigbox><div id=right_box></div></div><div class = centerbox><div class = fixation style=""font-size:100px"">+</div></div>",,practice_fixation,500.0,,,practice,1.0,500.0,,,,,,,,,,,
78,,html-keyboard-response,78,68186,0.0-2.1-2.1,,"<div class = bigbox><div id=left_box style=""border-width:15px""></div></div><div class = bigbox><div id=right_box style=""border-width:15px""></div></div><div class = centerbox><div class = fixation style=""font-size:100px"">+</div></div>",,practice_cue,500.0,,,practice,1.0,500.0,,,,,,,,,,,
79,,html-keyboard-response,79,68738,0.0-2.1-3.1,,"<div class = bigbox><div id=left_box></div></div><div class = bigbox><div id=right_box></div></div><div class = centerbox><div class = fixation style=""font-size:100px"">+</div></div>",,practice_CTI,550.0,,,practice,1.0,550.0,550.0,,,,,,,,,,
80,,html-keyboard-response,80,70245,0.0-2.1-4.1,324.0,"<div class = bigbox><div id=left_box><div class='center-text star'>*</div></div></div><div class = bigbox><div id=right_box></div></div><div class = centerbox><div class = fixation style=""font-size:100px"">+</div></div>",",",practice_trial,1500.0,,,practice,1.0,1000.0,,both,left,doublecue,",","[',', '.']",1,,,,
81,,html-keyboard-response,81,70752,0.0-2.1-5.1,,"<div class = fb_box><div class = 'center-text'><font size =20>Correct!</font></div></div><div class = bigbox><div id=left_box></div></div><div class = bigbox><div id=right_box></div></div><div class = centerbox><div class = fixation style=""font-size:100px"">+</div></div>",,practice_feedback,500.0,,,practice,,500.0,,,,,,,,,,,
82,,html-keyboard-response,82,70813,0.0-2.1-6.1,,"<div class = bigbox><div id=left_box></div></div><div class = bigbox><div id=right_box></div></div><div class = centerbox><div class = fixation style=""font-size:100px"">+</div></div>",,practice_ITI,59.276926613535416,,,practice,1.0,59.276926613535416,,,,,,,,"{'min': 0, 'max': 5, 'mean': 0.5}",,,
83,,html-keyboard-response,83,71318,0.0-2.1-7.1,,"<div class = bigbox><div id=left_box></div></div><div class = bigbox><div id=right_box></div></div><div class = centerbox><div class = fixation style=""font-size:100px"">+</div></div>",,practice_fixation,500.0,,,practice,1.0,500.0,,,,,,,,,,,
84,,html-keyboard-response,84,71821,0.0-2.1-8.1,,"<div class = bigbox><div id=left_box></div></div><div class = bigbox><div id=right_box style=""border-width:15px""></div></div><div class = centerbox><div class = fixation style=""font-size:100px"">+</div></div>",,practice_cue,500.0,,,practice,1.0,500.0,,,,,,,,,,,
85,,html-keyboard-response,85,71923,0.0-2.1-9.1,,"<div class = bigbox><div id=left_box></div></div><div class = bigbox><div id=right_box></div></div><div class = centerbox><div class = fixation style=""font-size:100px"">+</div></div>",,practice_CTI,100.0,,,practice,1.0,100.0,100.0,,,,,,,,,,
86,,html-keyboard-response,86,73430,0.0-2.1-10.1,419.0,"<div class = bigbox><div id=left_box><div class='center-text star'>*</div></div></div><div class = bigbox><div id=right_box></div></div><div class = centerbox><div class = fixation style=""font-size:100px"">+</div></div>",",",practice_trial,1500.0,,,practice,1.0,1000.0,,right,left,invalid,",","[',', '.']",1,,,,
87,,html-keyboard-response,87,73935,0.0-2.1-11.1,,"<div class = fb_box><div class = 'center-text'><font size =20>Correct!</font></div></div><div class = bigbox><div id=left_box></div></div><div class = bigbox><div id=right_box></div></div><div class = centerbox><div class = fixation style=""font-size:100px"">+</div></div>",,practice_feedback,500.0,,,practice,,500.0,,,,,,,,,,,
88,,html-keyboard-response,88,74842,0.0-2.1-12.1,,"<div class = bigbox><div id=left_box></div></div><div class = bigbox><div id=right_box></div></div><div class = centerbox><div class = fixation style=""font-size:100px"">+</div></div>",,practice_ITI,903.7206855513026,,,practice,1.0,903.7206855513026,,,,,,,,"{'min': 0, 'max': 5, 'mean': 0.5}",,,
89,,html-keyboard-response,89,75349,0.0-2.1-13.1,,"<div class = bigbox><div id=left_box></div></div><div class = bigbox><div id=right_box></div></div><div class = centerbox><div class = fixation style=""font-size:100px"">+</div></div>",,practice_fixation,500.0,,,practice,1.0,500.0,,,,,,,,,,,
90,,html-keyboard-response,90,75854,0.0-2.1-14.1,,"<div class = bigbox><div id=right_box style=""border-width:15px""></div></div><div class = bigbox><div id=left_box></div></div><div class = centerbox><div class = fixation style=""font-size:100px"">+</div></div>",,practice_cue,500.0,,,practice,1.0,500.0,,,,,,,,,,,
91,,html-keyboard-response,91,76861,0.0-2.1-15.1,,"<div class = bigbox><div id=left_box></div></div><div class = bigbox><div id=right_box></div></div><div class = centerbox><div class = fixation style=""font-size:100px"">+</div></div>",,practice_CTI,1000.0,,,practice,1.0,1000.0,1000.0,,,,,,,,,,
92,,html-keyboard-response,92,78364,0.0-2.1-16.1,383.0,"<div class = bigbox><div id=right_box><div class='center-text star'>*</div></div></div><div class = bigbox><div id=left_box></div></div><div class = centerbox><div class = fixation style=""font-size:100px"">+</div></div>",.,practice_trial,1500.0,,,practice,1.0,1000.0,,right,right,valid,.,"[',', '.']",1,,,,
93,,html-keyboard-response,93,78870,0.0-2.1-17.1,,"<div class = fb_box><div class = 'center-text'><font size =20>Correct!</font></div></div><div class = bigbox><div id=left_box></div></div><div class = bigbox><div id=right_box></div></div><div class = centerbox><div class = fixation style=""font-size:100px"">+</div></div>",,practice_feedback,500.0,,,practice,,500.0,,,,,,,,,,,
94,,html-keyboard-response,94,79756,0.0-2.1-18.1,,"<div class = bigbox><div id=left_box></div></div><div class = bigbox><div id=right_box></div></div><div class = centerbox><div class = fixation style=""font-size:100px"">+</div></div>",,practice_ITI,880.4807634662614,,,practice,1.0,880.4807634662614,,,,,,,,"{'min': 0, 'max': 5, 'mean': 0.5}",,,
95,,html-keyboard-response,95,80261,0.0-2.1-19.1,,"<div class = bigbox><div id=left_box></div></div><div class = bigbox><div id=right_box></div></div><div class = centerbox><div class = fixation style=""font-size:100px"">+</div></div>",,practice_fixation,500.0,,,practice,1.0,500.0,,,,,,,,,,,
96,,html-keyboard-response,96,80763,0.0-2.1-20.1,,"<div class = bigbox><div id=right_box style=""border-width:15px""></div></div><div class = bigbox><div id=left_box style=""border-width:15px""></div></div><div class = centerbox><div class = fixation style=""font-size:100px"">+</div></div>",,practice_cue,500.0,,,practice,1.0,500.0,,,,,,,,,,,
97,,html-keyboard-response,97,80868,0.0-2.1-21.1,,"<div class = bigbox><div id=left_box></div></div><div class = bigbox><div id=right_box></div></div><div class = centerbox><div class = fixation style=""font-size:100px"">+</div></div>",,practice_CTI,100.0,,,practice,1.0,100.0,100.0,,,,,,,,,,
98,,html-keyboard-response,98,82374,0.0-2.1-22.1,537.0,"<div class = bigbox><div id=right_box><div class='center-text star'>*</div></div></div><div class = bigbox><div id=left_box></div></div><div class = centerbox><div class = fixation style=""font-size:100px"">+</div></div>",.,practice_trial,1500.0,,,practice,1.0,1000.0,,both,right,doublecue,.,"[',', '.']",1,,,,
99,,html-keyboard-response,99,82880,0.0-2.1-23.1,,"<div class = fb_box><div class = 'center-text'><font size =20>Correct!</font></div></div><div class = bigbox><div id=left_box></div></div><div class = bigbox><div id=right_box></div></div><div class = centerbox><div class = fixation style=""font-size:100px"">+</div></div>",,practice_feedback,500.0,,,practice,,500.0,,,,,,,,,,,
100,,html-keyboard-response,100,83465,0.0-2.1-24.1,,"<div class = bigbox><div id=left_box></div></div><div class = bigbox><div id=right_box></div></div><div class = centerbox><div class = fixation style=""font-size:100px"">+</div></div>",,practice_ITI,579.7778478574685,,,practice,1.0,579.7778478574685,,,,,,,,"{'min': 0, 'max': 5, 'mean': 0.5}",,,
101,,html-keyboard-response,101,83968,0.0-2.1-25.1,,"<div class = bigbox><div id=left_box></div></div><div class = bigbox><div id=right_box></div></div><div class = centerbox><div class = fixation style=""font-size:100px"">+</div></div>",,practice_fixation,500.0,,,practice,1.0,500.0,,,,,,,,,,,
102,,html-keyboard-response,102,84473,0.0-2.1-26.1,,"<div class = bigbox><div id=left_box></div></div><div class = bigbox><div id=right_box></div></div><div class = centerbox><div class = fixation style=""font-size:100px"">+</div></div>",,practice_cue,500.0,,,practice,1.0,500.0,,,,,,,,,,,
103,,html-keyboard-response,103,85479,0.0-2.1-27.1,,"<div class = bigbox><div id=left_box></div></div><div class = bigbox><div id=right_box></div></div><div class = centerbox><div class = fixation style=""font-size:100px"">+</div></div>",,practice_CTI,1000.0,,,practice,1.0,1000.0,1000.0,,,,,,,,,,
104,,html-keyboard-response,104,86986,0.0-2.1-28.1,350.0,"<div class = bigbox><div id=left_box><div class='center-text star'>*</div></div></div><div class = bigbox><div id=right_box></div></div><div class = centerbox><div class = fixation style=""font-size:100px"">+</div></div>",",",practice_trial,1500.0,,,practice,1.0,1000.0,,none,left,nocue,",","[',', '.']",1,,,,
105,,html-keyboard-response,105,87488,0.0-2.1-29.1,,"<div class = fb_box><div class = 'center-text'><font size =20>Correct!</font></div></div><div class = bigbox><div id=left_box></div></div><div class = bigbox><div id=right_box></div></div><div class = centerbox><div class = fixation style=""font-size:100px"">+</div></div>",,practice_feedback,500.0,,,practice,,500.0,,,,,,,,,,,
106,,html-keyboard-response,106,87707,0.0-2.1-30.1,,"<div class = bigbox><div id=left_box></div></div><div class = bigbox><div id=right_box></div></div><div class = centerbox><div class = fixation style=""font-size:100px"">+</div></div>",,practice_ITI,214.16038254657332,,,practice,1.0,214.16038254657332,,,,,,,,"{'min': 0, 'max': 5, 'mean': 0.5}",,,
107,,html-keyboard-response,107,88213,0.0-2.1-31.1,,"<div class = bigbox><div id=left_box></div></div><div class = bigbox><div id=right_box></div></div><div class = centerbox><div class = fixation style=""font-size:100px"">+</div></div>",,practice_fixation,500.0,,,practice,1.0,500.0,,,,,,,,,,,
108,,html-keyboard-response,108,88717,0.0-2.1-32.1,,"<div class = bigbox><div id=right_box></div></div><div class = bigbox><div id=left_box></div></div><div class = centerbox><div class = fixation style=""font-size:100px"">+</div></div>",,practice_cue,500.0,,,practice,1.0,500.0,,,,,,,,,,,
109,,html-keyboard-response,109,89271,0.0-2.1-33.1,,"<div class = bigbox><div id=left_box></div></div><div class = bigbox><div id=right_box></div></div><div class = centerbox><div class = fixation style=""font-size:100px"">+</div></div>",,practice_CTI,550.0,,,practice,1.0,550.0,550.0,,,,,,,,,,
110,,html-keyboard-response,110,90778,0.0-2.1-34.1,314.0,"<div class = bigbox><div id=right_box><div class='center-text star'>*</div></div></div><div class = bigbox><div id=left_box></div></div><div class = centerbox><div class = fixation style=""font-size:100px"">+</div></div>",.,practice_trial,1500.0,,,practice,1.0,1000.0,,none,right,nocue,.,"[',', '.']",1,,,,
111,,html-keyboard-response,111,91281,0.0-2.1-35.1,,"<div class = fb_box><div class = 'center-text'><font size =20>Correct!</font></div></div><div class = bigbox><div id=left_box></div></div><div class = bigbox><div id=right_box></div></div><div class = centerbox><div class = fixation style=""font-size:100px"">+</div></div>",,practice_feedback,500.0,,,practice,,500.0,,,,,,,,,,,
112,,html-keyboard-response,112,92741,0.0-2.1-36.1,,"<div class = bigbox><div id=left_box></div></div><div class = bigbox><div id=right_box></div></div><div class = centerbox><div class = fixation style=""font-size:100px"">+</div></div>",,practice_ITI,1453.6511590222758,,,practice,1.0,1453.6511590222758,,,,,,,,"{'min': 0, 'max': 5, 'mean': 0.5}",,,
113,,html-keyboard-response,113,93245,0.0-2.1-37.1,,"<div class = bigbox><div id=left_box></div></div><div class = bigbox><div id=right_box></div></div><div class = centerbox><div class = fixation style=""font-size:100px"">+</div></div>",,practice_fixation,500.0,,,practice,1.0,500.0,,,,,,,,,,,
114,,html-keyboard-response,114,93749,0.0-2.1-38.1,,"<div class = bigbox><div id=right_box></div></div><div class = bigbox><div id=left_box></div></div><div class = centerbox><div class = fixation style=""font-size:100px"">+</div></div>",,practice_cue,500.0,,,practice,1.0,500.0,,,,,,,,,,,
115,,html-keyboard-response,115,94302,0.0-2.1-39.1,,"<div class = bigbox><div id=left_box></div></div><div class = bigbox><div id=right_box></div></div><div class = centerbox><div class = fixation style=""font-size:100px"">+</div></div>",,practice_CTI,550.0,,,practice,1.0,550.0,550.0,,,,,,,,,,
116,,html-keyboard-response,116,95804,0.0-2.1-40.1,384.0,"<div class = bigbox><div id=right_box><div class='center-text star'>*</div></div></div><div class = bigbox><div id=left_box></div></div><div class = centerbox><div class = fixation style=""font-size:100px"">+</div></div>",.,practice_trial,1500.0,,,practice,1.0,1000.0,,none,right,nocue,.,"[',', '.']",1,,,,
117,,html-keyboard-response,117,96307,0.0-2.1-41.1,,"<div class = fb_box><div class = 'center-text'><font size =20>Correct!</font></div></div><div class = bigbox><div id=left_box></div></div><div class = bigbox><div id=right_box></div></div><div class = centerbox><div class = fixation style=""font-size:100px"">+</div></div>",,practice_feedback,500.0,,,practice,,500.0,,,,,,,,,,,
118,,html-keyboard-response,118,96580,0.0-2.1-42.1,,"<div class = bigbox><div id=left_box></div></div><div class = bigbox><div id=right_box></div></div><div class = centerbox><div class = fixation style=""font-size:100px"">+</div></div>",,practice_ITI,270.96651661299154,,,practice,1.0,270.96651661299154,,,,,,,,"{'min': 0, 'max': 5, 'mean': 0.5}",,,
119,,html-keyboard-response,119,97083,0.0-2.1-43.1,,"<div class = bigbox><div id=left_box></div></div><div class = bigbox><div id=right_box></div></div><div class = centerbox><div class = fixation style=""font-size:100px"">+</div></div>",,practice_fixation,500.0,,,practice,1.0,500.0,,,,,,,,,,,
120,,html-keyboard-response,120,97586,0.0-2.1-44.1,,"<div class = bigbox><div id=left_box style=""border-width:15px""></div></div><div class = bigbox><div id=right_box></div></div><div class = centerbox><div class = fixation style=""font-size:100px"">+</div></div>",,practice_cue,500.0,,,practice,1.0,500.0,,,,,,,,,,,
121,,html-keyboard-response,121,97689,0.0-2.1-45.1,,"<div class = bigbox><div id=left_box></div></div><div class = bigbox><div id=right_box></div></div><div class = centerbox><div class = fixation style=""font-size:100px"">+</div></div>",,practice_CTI,100.0,,,practice,1.0,100.0,100.0,,,,,,,,,,
122,,html-keyboard-response,122,99194,0.0-2.1-46.1,422.0,"<div class = bigbox><div id=left_box><div class='center-text star'>*</div></div></div><div class = bigbox><div id=right_box></div></div><div class = centerbox><div class = fixation style=""font-size:100px"">+</div></div>",",",practice_trial,1500.0,,,practice,1.0,1000.0,,left,left,valid,",","[',', '.']",1,,,,
123,,html-keyboard-response,123,99697,0.0-2.1-47.1,,"<div class = fb_box><div class = 'center-text'><font size =20>Correct!</font></div></div><div class = bigbox><div id=left_box></div></div><div class = bigbox><div id=right_box></div></div><div class = centerbox><div class = fixation style=""font-size:100px"">+</div></div>",,practice_feedback,500.0,,,practice,,500.0,,,,,,,,,,,
124,,html-keyboard-response,124,99864,0.0-2.1-48.1,,"<div class = bigbox><div id=left_box></div></div><div class = bigbox><div id=right_box></div></div><div class = centerbox><div class = fixation style=""font-size:100px"">+</div></div>",,practice_ITI,164.75691034331263,,,practice,1.0,164.75691034331263,,,,,,,,"{'min': 0, 'max': 5, 'mean': 0.5}",,,
125,,html-keyboard-response,125,100367,0.0-2.1-49.1,,"<div class = bigbox><div id=left_box></div></div><div class = bigbox><div id=right_box></div></div><div class = centerbox><div class = fixation style=""font-size:100px"">+</div></div>",,practice_fixation,500.0,,,practice,1.0,500.0,,,,,,,,,,,
126,,html-keyboard-response,126,100871,0.0-2.1-50.1,,"<div class = bigbox><div id=right_box style=""border-width:15px""></div></div><div class = bigbox><div id=left_box style=""border-width:15px""></div></div><div class = centerbox><div class = fixation style=""font-size:100px"">+</div></div>",,practice_cue,500.0,,,practice,1.0,500.0,,,,,,,,,,,
127,,html-keyboard-response,127,101877,0.0-2.1-51.1,,"<div class = bigbox><div id=left_box></div></div><div class = bigbox><div id=right_box></div></div><div class = centerbox><div class = fixation style=""font-size:100px"">+</div></div>",,practice_CTI,1000.0,,,practice,1.0,1000.0,1000.0,,,,,,,,,,
128,,html-keyboard-response,128,103384,0.0-2.1-52.1,350.0,"<div class = bigbox><div id=right_box><div class='center-text star'>*</div></div></div><div class = bigbox><div id=left_box></div></div><div class = centerbox><div class = fixation style=""font-size:100px"">+</div></div>",.,practice_trial,1500.0,,,practice,1.0,1000.0,,both,right,doublecue,.,"[',', '.']",1,,,,
129,,html-keyboard-response,129,103888,0.0-2.1-53.1,,"<div class = fb_box><div class = 'center-text'><font size =20>Correct!</font></div></div><div class = bigbox><div id=left_box></div></div><div class = bigbox><div id=right_box></div></div><div class = centerbox><div class = fixation style=""font-size:100px"">+</div></div>",,practice_feedback,500.0,,,practice,,500.0,,,,,,,,,,,
130,,html-keyboard-response,130,104041,0.0-2.1-54.1,,"<div class = bigbox><div id=left_box></div></div><div class = bigbox><div id=right_box></div></div><div class = centerbox><div class = fixation style=""font-size:100px"">+</div></div>",,practice_ITI,146.77361903307647,,,practice,1.0,146.77361903307647,,,,,,,,"{'min': 0, 'max': 5, 'mean': 0.5}",,,
131,,html-keyboard-response,131,104545,0.0-2.1-55.1,,"<div class = bigbox><div id=left_box></div></div><div class = bigbox><div id=right_box></div></div><div class = centerbox><div class = fixation style=""font-size:100px"">+</div></div>",,practice_fixation,500.0,,,practice,1.0,500.0,,,,,,,,,,,
132,,html-keyboard-response,132,105049,0.0-2.1-56.1,,"<div class = bigbox><div id=right_box></div></div><div class = bigbox><div id=left_box></div></div><div class = centerbox><div class = fixation style=""font-size:100px"">+</div></div>",,practice_cue,500.0,,,practice,1.0,500.0,,,,,,,,,,,
133,,html-keyboard-response,133,105156,0.0-2.1-57.1,,"<div class = bigbox><div id=left_box></div></div><div class = bigbox><div id=right_box></div></div><div class = centerbox><div class = fixation style=""font-size:100px"">+</div></div>",,practice_CTI,100.0,,,practice,1.0,100.0,100.0,,,,,,,,,,
134,,html-keyboard-response,134,106662,0.0-2.1-58.1,333.0,"<div class = bigbox><div id=right_box><div class='center-text star'>*</div></div></div><div class = bigbox><div id=left_box></div></div><div class = centerbox><div class = fixation style=""font-size:100px"">+</div></div>",.,practice_trial,1500.0,,,practice,1.0,1000.0,,none,right,nocue,.,"[',', '.']",1,,,,
135,,html-keyboard-response,135,107166,0.0-2.1-59.1,,"<div class = fb_box><div class = 'center-text'><font size =20>Correct!</font></div></div><div class = bigbox><div id=left_box></div></div><div class = bigbox><div id=right_box></div></div><div class = centerbox><div class = fixation style=""font-size:100px"">+</div></div>",,practice_feedback,500.0,,,practice,,500.0,,,,,,,,,,,
136,,html-keyboard-response,136,107222,0.0-2.1-60.1,,"<div class = bigbox><div id=left_box></div></div><div class = bigbox><div id=right_box></div></div><div class = centerbox><div class = fixation style=""font-size:100px"">+</div></div>",,practice_ITI,50.25614968975718,,,practice,1.0,50.25614968975718,,,,,,,,"{'min': 0, 'max': 5, 'mean': 0.5}",,,
137,,html-keyboard-response,137,107727,0.0-2.1-61.1,,"<div class = bigbox><div id=left_box></div></div><div class = bigbox><div id=right_box></div></div><div class = centerbox><div class = fixation style=""font-size:100px"">+</div></div>",,practice_fixation,500.0,,,practice,1.0,500.0,,,,,,,,,,,
138,,html-keyboard-response,138,108231,0.0-2.1-62.1,,"<div class = bigbox><div id=left_box style=""border-width:15px""></div></div><div class = bigbox><div id=right_box style=""border-width:15px""></div></div><div class = centerbox><div class = fixation style=""font-size:100px"">+</div></div>",,practice_cue,500.0,,,practice,1.0,500.0,,,,,,,,,,,
139,,html-keyboard-response,139,108784,0.0-2.1-63.1,,"<div class = bigbox><div id=left_box></div></div><div class = bigbox><div id=right_box></div></div><div class = centerbox><div class = fixation style=""font-size:100px"">+</div></div>",,practice_CTI,550.0,,,practice,1.0,550.0,550.0,,,,,,,,,,
140,,html-keyboard-response,140,110288,0.0-2.1-64.1,640.0,"<div class = bigbox><div id=left_box><div class='center-text star'>*</div></div></div><div class = bigbox><div id=right_box></div></div><div class = centerbox><div class = fixation style=""font-size:100px"">+</div></div>",",",practice_trial,1500.0,,,practice,1.0,1000.0,,both,left,doublecue,",","[',', '.']",1,,,,
141,,html-keyboard-response,141,110792,0.0-2.1-65.1,,"<div class = fb_box><div class = 'center-text'><font size =20>Correct!</font></div></div><div class = bigbox><div id=left_box></div></div><div class = bigbox><div id=right_box></div></div><div class = centerbox><div class = fixation style=""font-size:100px"">+</div></div>",,practice_feedback,500.0,,,practice,,500.0,,,,,,,,,,,
142,,html-keyboard-response,142,111364,0.0-2.1-66.1,,"<div class = bigbox><div id=left_box></div></div><div class = bigbox><div id=right_box></div></div><div class = centerbox><div class = fixation style=""font-size:100px"">+</div></div>",,practice_ITI,567.1804278779429,,,practice,1.0,567.1804278779429,,,,,,,,"{'min': 0, 'max': 5, 'mean': 0.5}",,,
143,,html-keyboard-response,143,111869,0.0-2.1-67.1,,"<div class = bigbox><div id=left_box></div></div><div class = bigbox><div id=right_box></div></div><div class = centerbox><div class = fixation style=""font-size:100px"">+</div></div>",,practice_fixation,500.0,,,practice,1.0,500.0,,,,,,,,,,,
144,,html-keyboard-response,144,112374,0.0-2.1-68.1,,"<div class = bigbox><div id=right_box style=""border-width:15px""></div></div><div class = bigbox><div id=left_box style=""border-width:15px""></div></div><div class = centerbox><div class = fixation style=""font-size:100px"">+</div></div>",,practice_cue,500.0,,,practice,1.0,500.0,,,,,,,,,,,
145,,html-keyboard-response,145,113381,0.0-2.1-69.1,,"<div class = bigbox><div id=left_box></div></div><div class = bigbox><div id=right_box></div></div><div class = centerbox><div class = fixation style=""font-size:100px"">+</div></div>",,practice_CTI,1000.0,,,practice,1.0,1000.0,1000.0,,,,,,,,,,
146,,html-keyboard-response,146,114888,0.0-2.1-70.1,380.0,"<div class = bigbox><div id=right_box><div class='center-text star'>*</div></div></div><div class = bigbox><div id=left_box></div></div><div class = centerbox><div class = fixation style=""font-size:100px"">+</div></div>",",",practice_trial,1500.0,,,practice,1.0,1000.0,,both,right,doublecue,.,"[',', '.']",0,,,,
147,,html-keyboard-response,147,115391,0.0-2.1-71.1,,"<div class = fb_box><div class = 'center-text'><font size =20>Incorrect</font></div></div><div class = bigbox><div id=left_box></div></div><div class = bigbox><div id=right_box></div></div><div class = centerbox><div class = fixation style=""font-size:100px"">+</div></div>",,practice_feedback,500.0,,,practice,,500.0,,,,,,,,,,,
148,,html-keyboard-response,148,115495,0.0-2.1-72.1,,"<div class = bigbox><div id=left_box></div></div><div class = bigbox><div id=right_box></div></div><div class = centerbox><div class = fixation style=""font-size:100px"">+</div></div>",,practice_ITI,100.24576119322813,,,practice,1.0,100.24576119322813,,,,,,,,"{'min': 0, 'max': 5, 'mean': 0.5}",,,
149,,html-keyboard-response,149,116324,0.0-3.0-0.0,827.0,"<div class = bigbox><div class = picture_box><p class = block-text>
    
        <div class=""centerbox"">
          <p class=""center-block-text"">We will now start the test portion.</p>
          <p class=""block-text"">Keep your <b>index finger</b> on the <b>comma key (,)</b> and your <b>middle finger</b> on the <b>period key (.)</b></p>
          <p class=""block-text"">Press <i>enter</i> to continue.</p>
        </div>
      
    </font></p></div></div>",enter,test_feedback,60000.0,,,test,0.0,,,,,,,,,,,,
150,,html-keyboard-response,150,118184,0.0-3.0-1.0-0.0,857.0,,k,test_attention_check,,,,test,0.0,,,,,,,,True,,<p class='block-text'>Press the K key</p> <div class=block-text>This screen will advance automatically in 1 minute.</div>,75.0,
151,,html-keyboard-response,151,118688,0.0-3.0-2.0,,"<div class = bigbox><div id=left_box></div></div><div class = bigbox><div id=right_box></div></div><div class = centerbox><div class = fixation style=""font-size:100px"">+</div></div>",,test_fixation,500.0,,,test,,500.0,,,,,,,,,,,
152,,html-keyboard-response,152,119193,0.0-3.0-3.0,,"<div class = bigbox><div id=right_box></div></div><div class = bigbox><div id=left_box></div></div><div class = centerbox><div class = fixation style=""font-size:100px"">+</div></div>",,test_cue,500.0,,,test,0.0,500.0,,,,,,,,,,,
153,,html-keyboard-response,153,119746,0.0-3.0-4.0,,"<div class = bigbox><div id=left_box></div></div><div class = bigbox><div id=right_box></div></div><div class = centerbox><div class = fixation style=""font-size:100px"">+</div></div>",,test_CTI,550.0,,,test,0.0,550.0,550.0,,,,,,,,,,
154,,html-keyboard-response,154,121253,0.0-3.0-5.0,631.0,"<div class = bigbox><div id=right_box><div class='center-text star'>*</div></div></div><div class = bigbox><div id=left_box></div></div><div class = centerbox><div class = fixation style=""font-size:100px"">+</div></div>",.,test_trial,1500.0,,,test,0.0,1000.0,,none,right,nocue,.,"[',', '.']",1,,,,
155,,html-keyboard-response,155,121294,0.0-3.0-6.0,,"<div class = bigbox><div id=left_box></div></div><div class = bigbox><div id=right_box></div></div><div class = centerbox><div class = fixation style=""font-size:100px"">+</div></div>",,test_ITI,38.300559007951726,,,test,0.0,38.300559007951726,,,,,,,,"{'min': 0, 'max': 5, 'mean': 0.5}",,,
156,,html-keyboard-response,156,121798,0.0-3.0-7.0,,"<div class = bigbox><div id=left_box></div></div><div class = bigbox><div id=right_box></div></div><div class = centerbox><div class = fixation style=""font-size:100px"">+</div></div>",,test_fixation,500.0,,,test,,500.0,,,,,,,,,,,
157,,html-keyboard-response,157,122303,0.0-3.0-8.0,,"<div class = bigbox><div id=right_box></div></div><div class = bigbox><div id=left_box></div></div><div class = centerbox><div class = fixation style=""font-size:100px"">+</div></div>",,test_cue,500.0,,,test,0.0,500.0,,,,,,,,,,,
158,,html-keyboard-response,158,122406,0.0-3.0-9.0,,"<div class = bigbox><div id=left_box></div></div><div class = bigbox><div id=right_box></div></div><div class = centerbox><div class = fixation style=""font-size:100px"">+</div></div>",,test_CTI,100.0,,,test,0.0,100.0,100.0,,,,,,,,,,
159,,html-keyboard-response,159,123913,0.0-3.0-10.0,387.0,"<div class = bigbox><div id=right_box><div class='center-text star'>*</div></div></div><div class = bigbox><div id=left_box></div></div><div class = centerbox><div class = fixation style=""font-size:100px"">+</div></div>",.,test_trial,1500.0,,,test,0.0,1000.0,,none,right,nocue,.,"[',', '.']",1,,,,
160,,html-keyboard-response,160,124074,0.0-3.0-11.0,,"<div class = bigbox><div id=left_box></div></div><div class = bigbox><div id=right_box></div></div><div class = centerbox><div class = fixation style=""font-size:100px"">+</div></div>",,test_ITI,160.51912136203276,,,test,0.0,160.51912136203276,,,,,,,,"{'min': 0, 'max': 5, 'mean': 0.5}",,,
161,,html-keyboard-response,161,124578,0.0-3.0-12.0,,"<div class = bigbox><div id=left_box></div></div><div class = bigbox><div id=right_box></div></div><div class = centerbox><div class = fixation style=""font-size:100px"">+</div></div>",,test_fixation,500.0,,,test,,500.0,,,,,,,,,,,
162,,html-keyboard-response,162,125083,0.0-3.0-13.0,,"<div class = bigbox><div id=right_box style=""border-width:15px""></div></div><div class = bigbox><div id=left_box style=""border-width:15px""></div></div><div class = centerbox><div class = fixation style=""font-size:100px"">+</div></div>",,test_cue,500.0,,,test,0.0,500.0,,,,,,,,,,,
163,,html-keyboard-response,163,126089,0.0-3.0-14.0,,"<div class = bigbox><div id=left_box></div></div><div class = bigbox><div id=right_box></div></div><div class = centerbox><div class = fixation style=""font-size:100px"">+</div></div>",,test_CTI,1000.0,,,test,0.0,1000.0,1000.0,,,,,,,,,,
164,,html-keyboard-response,164,127596,0.0-3.0-15.0,354.0,"<div class = bigbox><div id=right_box><div class='center-text star'>*</div></div></div><div class = bigbox><div id=left_box></div></div><div class = centerbox><div class = fixation style=""font-size:100px"">+</div></div>",.,test_trial,1500.0,,,test,0.0,1000.0,,both,right,doublecue,.,"[',', '.']",1,,,,
165,,html-keyboard-response,165,127659,0.0-3.0-16.0,,"<div class = bigbox><div id=left_box></div></div><div class = bigbox><div id=right_box></div></div><div class = centerbox><div class = fixation style=""font-size:100px"">+</div></div>",,test_ITI,60.41335193528362,,,test,0.0,60.41335193528362,,,,,,,,"{'min': 0, 'max': 5, 'mean': 0.5}",,,
166,,html-keyboard-response,166,128163,0.0-3.0-17.0,,"<div class = bigbox><div id=left_box></div></div><div class = bigbox><div id=right_box></div></div><div class = centerbox><div class = fixation style=""font-size:100px"">+</div></div>",,test_fixation,500.0,,,test,,500.0,,,,,,,,,,,
167,,html-keyboard-response,167,128668,0.0-3.0-18.0,,"<div class = bigbox><div id=right_box style=""border-width:15px""></div></div><div class = bigbox><div id=left_box></div></div><div class = centerbox><div class = fixation style=""font-size:100px"">+</div></div>",,test_cue,500.0,,,test,0.0,500.0,,,,,,,,,,,
168,,html-keyboard-response,168,129222,0.0-3.0-19.0,,"<div class = bigbox><div id=left_box></div></div><div class = bigbox><div id=right_box></div></div><div class = centerbox><div class = fixation style=""font-size:100px"">+</div></div>",,test_CTI,550.0,,,test,0.0,550.0,550.0,,,,,,,,,,
169,,html-keyboard-response,169,130726,0.0-3.0-20.0,360.0,"<div class = bigbox><div id=right_box><div class='center-text star'>*</div></div></div><div class = bigbox><div id=left_box></div></div><div class = centerbox><div class = fixation style=""font-size:100px"">+</div></div>",.,test_trial,1500.0,,,test,0.0,1000.0,,right,right,valid,.,"[',', '.']",1,,,,
170,,html-keyboard-response,170,130783,0.0-3.0-21.0,,"<div class = bigbox><div id=left_box></div></div><div class = bigbox><div id=right_box></div></div><div class = centerbox><div class = fixation style=""font-size:100px"">+</div></div>",,test_ITI,54.18790706884325,,,test,0.0,54.18790706884325,,,,,,,,"{'min': 0, 'max': 5, 'mean': 0.5}",,,
171,,html-keyboard-response,171,131290,0.0-3.0-22.0,,"<div class = bigbox><div id=left_box></div></div><div class = bigbox><div id=right_box></div></div><div class = centerbox><div class = fixation style=""font-size:100px"">+</div></div>",,test_fixation,500.0,,,test,,500.0,,,,,,,,,,,
172,,html-keyboard-response,172,131795,0.0-3.0-23.0,,"<div class = bigbox><div id=left_box style=""border-width:15px""></div></div><div class = bigbox><div id=right_box style=""border-width:15px""></div></div><div class = centerbox><div class = fixation style=""font-size:100px"">+</div></div>",,test_cue,500.0,,,test,0.0,500.0,,,,,,,,,,,
173,,html-keyboard-response,173,131902,0.0-3.0-24.0,,"<div class = bigbox><div id=left_box></div></div><div class = bigbox><div id=right_box></div></div><div class = centerbox><div class = fixation style=""font-size:100px"">+</div></div>",,test_CTI,100.0,,,test,0.0,100.0,100.0,,,,,,,,,,
174,,html-keyboard-response,174,133409,0.0-3.0-25.0,450.0,"<div class = bigbox><div id=left_box><div class='center-text star'>*</div></div></div><div class = bigbox><div id=right_box></div></div><div class = centerbox><div class = fixation style=""font-size:100px"">+</div></div>",",",test_trial,1500.0,,,test,0.0,1000.0,,both,left,doublecue,",","[',', '.']",1,,,,
175,,html-keyboard-response,175,133561,0.0-3.0-26.0,,"<div class = bigbox><div id=left_box></div></div><div class = bigbox><div id=right_box></div></div><div class = centerbox><div class = fixation style=""font-size:100px"">+</div></div>",,test_ITI,148.03417514008393,,,test,0.0,148.03417514008393,,,,,,,,"{'min': 0, 'max': 5, 'mean': 0.5}",,,
176,,html-keyboard-response,176,134063,0.0-3.0-27.0,,"<div class = bigbox><div id=left_box></div></div><div class = bigbox><div id=right_box></div></div><div class = centerbox><div class = fixation style=""font-size:100px"">+</div></div>",,test_fixation,500.0,,,test,,500.0,,,,,,,,,,,
177,,html-keyboard-response,177,134566,0.0-3.0-28.0,,"<div class = bigbox><div id=right_box></div></div><div class = bigbox><div id=left_box></div></div><div class = centerbox><div class = fixation style=""font-size:100px"">+</div></div>",,test_cue,500.0,,,test,0.0,500.0,,,,,,,,,,,
178,,html-keyboard-response,178,135568,0.0-3.0-29.0,,"<div class = bigbox><div id=left_box></div></div><div class = bigbox><div id=right_box></div></div><div class = centerbox><div class = fixation style=""font-size:100px"">+</div></div>",,test_CTI,1000.0,,,test,0.0,1000.0,1000.0,,,,,,,,,,
179,,html-keyboard-response,179,137073,0.0-3.0-30.0,360.0,"<div class = bigbox><div id=right_box><div class='center-text star'>*</div></div></div><div class = bigbox><div id=left_box></div></div><div class = centerbox><div class = fixation style=""font-size:100px"">+</div></div>",.,test_trial,1500.0,,,test,0.0,1000.0,,none,right,nocue,.,"[',', '.']",1,,,,
180,,html-keyboard-response,180,137176,0.0-3.0-31.0,,"<div class = bigbox><div id=left_box></div></div><div class = bigbox><div id=right_box></div></div><div class = centerbox><div class = fixation style=""font-size:100px"">+</div></div>",,test_ITI,96.37896286594398,,,test,0.0,96.37896286594398,,,,,,,,"{'min': 0, 'max': 5, 'mean': 0.5}",,,
181,,html-keyboard-response,181,137680,0.0-3.0-32.0,,"<div class = bigbox><div id=left_box></div></div><div class = bigbox><div id=right_box></div></div><div class = centerbox><div class = fixation style=""font-size:100px"">+</div></div>",,test_fixation,500.0,,,test,,500.0,,,,,,,,,,,
182,,html-keyboard-response,182,138185,0.0-3.0-33.0,,"<div class = bigbox><div id=left_box style=""border-width:15px""></div></div><div class = bigbox><div id=right_box></div></div><div class = centerbox><div class = fixation style=""font-size:100px"">+</div></div>",,test_cue,500.0,,,test,0.0,500.0,,,,,,,,,,,
183,,html-keyboard-response,183,138738,0.0-3.0-34.0,,"<div class = bigbox><div id=left_box></div></div><div class = bigbox><div id=right_box></div></div><div class = centerbox><div class = fixation style=""font-size:100px"">+</div></div>",,test_CTI,550.0,,,test,0.0,550.0,550.0,,,,,,,,,,
184,,html-keyboard-response,184,140245,0.0-3.0-35.0,424.0,"<div class = bigbox><div id=left_box><div class='center-text star'>*</div></div></div><div class = bigbox><div id=right_box></div></div><div class = centerbox><div class = fixation style=""font-size:100px"">+</div></div>",",",test_trial,1500.0,,,test,0.0,1000.0,,left,left,valid,",","[',', '.']",1,,,,
185,,html-keyboard-response,185,142257,0.0-3.0-36.0,,"<div class = bigbox><div id=left_box></div></div><div class = bigbox><div id=right_box></div></div><div class = centerbox><div class = fixation style=""font-size:100px"">+</div></div>",,test_ITI,2010.3419870888492,,,test,0.0,2010.3419870888492,,,,,,,,"{'min': 0, 'max': 5, 'mean': 0.5}",,,
186,,html-keyboard-response,186,142760,0.0-3.0-37.0,,"<div class = bigbox><div id=left_box></div></div><div class = bigbox><div id=right_box></div></div><div class = centerbox><div class = fixation style=""font-size:100px"">+</div></div>",,test_fixation,500.0,,,test,,500.0,,,,,,,,,,,
187,,html-keyboard-response,187,143265,0.0-3.0-38.0,,"<div class = bigbox><div id=right_box style=""border-width:15px""></div></div><div class = bigbox><div id=left_box></div></div><div class = centerbox><div class = fixation style=""font-size:100px"">+</div></div>",,test_cue,500.0,,,test,0.0,500.0,,,,,,,,,,,
188,,html-keyboard-response,188,144271,0.0-3.0-39.0,,"<div class = bigbox><div id=left_box></div></div><div class = bigbox><div id=right_box></div></div><div class = centerbox><div class = fixation style=""font-size:100px"">+</div></div>",,test_CTI,1000.0,,,test,0.0,1000.0,1000.0,,,,,,,,,,
189,,html-keyboard-response,189,145776,0.0-3.0-40.0,353.0,"<div class = bigbox><div id=right_box><div class='center-text star'>*</div></div></div><div class = bigbox><div id=left_box></div></div><div class = centerbox><div class = fixation style=""font-size:100px"">+</div></div>",.,test_trial,1500.0,,,test,0.0,1000.0,,right,right,valid,.,"[',', '.']",1,,,,
190,,html-keyboard-response,190,146148,0.0-3.0-41.0,,"<div class = bigbox><div id=left_box></div></div><div class = bigbox><div id=right_box></div></div><div class = centerbox><div class = fixation style=""font-size:100px"">+</div></div>",,test_ITI,366.6227646230283,,,test,0.0,366.6227646230283,,,,,,,,"{'min': 0, 'max': 5, 'mean': 0.5}",,,
191,,html-keyboard-response,191,146653,0.0-3.0-42.0,,"<div class = bigbox><div id=left_box></div></div><div class = bigbox><div id=right_box></div></div><div class = centerbox><div class = fixation style=""font-size:100px"">+</div></div>",,test_fixation,500.0,,,test,,500.0,,,,,,,,,,,
192,,html-keyboard-response,192,147159,0.0-3.0-43.0,,"<div class = bigbox><div id=right_box style=""border-width:15px""></div></div><div class = bigbox><div id=left_box></div></div><div class = centerbox><div class = fixation style=""font-size:100px"">+</div></div>",,test_cue,500.0,,,test,0.0,500.0,,,,,,,,,,,
193,,html-keyboard-response,193,147265,0.0-3.0-44.0,,"<div class = bigbox><div id=left_box></div></div><div class = bigbox><div id=right_box></div></div><div class = centerbox><div class = fixation style=""font-size:100px"">+</div></div>",,test_CTI,100.0,,,test,0.0,100.0,100.0,,,,,,,,,,
194,,html-keyboard-response,194,148772,0.0-3.0-45.0,,"<div class = bigbox><div id=right_box><div class='center-text star'>*</div></div></div><div class = bigbox><div id=left_box></div></div><div class = centerbox><div class = fixation style=""font-size:100px"">+</div></div>",,test_trial,1500.0,,,test,0.0,1000.0,,right,right,valid,.,"[',', '.']",0,,,,
195,,html-keyboard-response,195,149424,0.0-3.0-46.0,,"<div class = bigbox><div id=left_box></div></div><div class = bigbox><div id=right_box></div></div><div class = centerbox><div class = fixation style=""font-size:100px"">+</div></div>",,test_ITI,646.2792703618974,,,test,0.0,646.2792703618974,,,,,,,,"{'min': 0, 'max': 5, 'mean': 0.5}",,,
196,,html-keyboard-response,196,149926,0.0-3.0-47.0,,"<div class = bigbox><div id=left_box></div></div><div class = bigbox><div id=right_box></div></div><div class = centerbox><div class = fixation style=""font-size:100px"">+</div></div>",,test_fixation,500.0,,,test,,500.0,,,,,,,,,,,
197,,html-keyboard-response,197,150431,0.0-3.0-48.0,,"<div class = bigbox><div id=left_box style=""border-width:15px""></div></div><div class = bigbox><div id=right_box></div></div><div class = centerbox><div class = fixation style=""font-size:100px"">+</div></div>",,test_cue,500.0,,,test,0.0,500.0,,,,,,,,,,,
198,,html-keyboard-response,198,150537,0.0-3.0-49.0,,"<div class = bigbox><div id=left_box></div></div><div class = bigbox><div id=right_box></div></div><div class = centerbox><div class = fixation style=""font-size:100px"">+</div></div>",,test_CTI,100.0,,,test,0.0,100.0,100.0,,,,,,,,,,
199,,html-keyboard-response,199,152044,0.0-3.0-50.0,,"<div class = bigbox><div id=left_box><div class='center-text star'>*</div></div></div><div class = bigbox><div id=right_box></div></div><div class = centerbox><div class = fixation style=""font-size:100px"">+</div></div>",,test_trial,1500.0,,,test,0.0,1000.0,,left,left,valid,",","[',', '.']",0,,,,
200,,html-keyboard-response,200,152164,0.0-3.0-51.0,,"<div class = bigbox><div id=left_box></div></div><div class = bigbox><div id=right_box></div></div><div class = centerbox><div class = fixation style=""font-size:100px"">+</div></div>",,test_ITI,116.78449064510616,,,test,0.0,116.78449064510616,,,,,,,,"{'min': 0, 'max': 5, 'mean': 0.5}",,,
201,,html-keyboard-response,201,152668,0.0-3.0-52.0,,"<div class = bigbox><div id=left_box></div></div><div class = bigbox><div id=right_box></div></div><div class = centerbox><div class = fixation style=""font-size:100px"">+</div></div>",,test_fixation,500.0,,,test,,500.0,,,,,,,,,,,
202,,html-keyboard-response,202,153173,0.0-3.0-53.0,,"<div class = bigbox><div id=right_box></div></div><div class = bigbox><div id=left_box style=""border-width:15px""></div></div><div class = centerbox><div class = fixation style=""font-size:100px"">+</div></div>",,test_cue,500.0,,,test,0.0,500.0,,,,,,,,,,,
203,,html-keyboard-response,203,154177,0.0-3.0-54.0,,"<div class = bigbox><div id=left_box></div></div><div class = bigbox><div id=right_box></div></div><div class = centerbox><div class = fixation style=""font-size:100px"">+</div></div>",,test_CTI,1000.0,,,test,0.0,1000.0,1000.0,,,,,,,,,,
204,,html-keyboard-response,204,155684,0.0-3.0-55.0,,"<div class = bigbox><div id=right_box><div class='center-text star'>*</div></div></div><div class = bigbox><div id=left_box></div></div><div class = centerbox><div class = fixation style=""font-size:100px"">+</div></div>",,test_trial,1500.0,,,test,0.0,1000.0,,left,right,invalid,.,"[',', '.']",0,,,,
205,,html-keyboard-response,205,156201,0.0-3.0-56.0,,"<div class = bigbox><div id=left_box></div></div><div class = bigbox><div id=right_box></div></div><div class = centerbox><div class = fixation style=""font-size:100px"">+</div></div>",,test_ITI,510.1100631939714,,,test,0.0,510.1100631939714,,,,,,,,"{'min': 0, 'max': 5, 'mean': 0.5}",,,
206,,html-keyboard-response,206,156703,0.0-3.0-57.0,,"<div class = bigbox><div id=left_box></div></div><div class = bigbox><div id=right_box></div></div><div class = centerbox><div class = fixation style=""font-size:100px"">+</div></div>",,test_fixation,500.0,,,test,,500.0,,,,,,,,,,,
207,,html-keyboard-response,207,157210,0.0-3.0-58.0,,"<div class = bigbox><div id=left_box></div></div><div class = bigbox><div id=right_box></div></div><div class = centerbox><div class = fixation style=""font-size:100px"">+</div></div>",,test_cue,500.0,,,test,0.0,500.0,,,,,,,,,,,
208,,html-keyboard-response,208,157763,0.0-3.0-59.0,,"<div class = bigbox><div id=left_box></div></div><div class = bigbox><div id=right_box></div></div><div class = centerbox><div class = fixation style=""font-size:100px"">+</div></div>",,test_CTI,550.0,,,test,0.0,550.0,550.0,,,,,,,,,,
209,,html-keyboard-response,209,159270,0.0-3.0-60.0,,"<div class = bigbox><div id=left_box><div class='center-text star'>*</div></div></div><div class = bigbox><div id=right_box></div></div><div class = centerbox><div class = fixation style=""font-size:100px"">+</div></div>",,test_trial,1500.0,,,test,0.0,1000.0,,none,left,nocue,",","[',', '.']",0,,,,
210,,html-keyboard-response,210,159461,0.0-3.0-61.0,,"<div class = bigbox><div id=left_box></div></div><div class = bigbox><div id=right_box></div></div><div class = centerbox><div class = fixation style=""font-size:100px"">+</div></div>",,test_ITI,186.67542889161007,,,test,0.0,186.67542889161007,,,,,,,,"{'min': 0, 'max': 5, 'mean': 0.5}",,,
211,,html-keyboard-response,211,159968,0.0-3.0-62.0,,"<div class = bigbox><div id=left_box></div></div><div class = bigbox><div id=right_box></div></div><div class = centerbox><div class = fixation style=""font-size:100px"">+</div></div>",,test_fixation,500.0,,,test,,500.0,,,,,,,,,,,
212,,html-keyboard-response,212,160473,0.0-3.0-63.0,,"<div class = bigbox><div id=left_box style=""border-width:15px""></div></div><div class = bigbox><div id=right_box style=""border-width:15px""></div></div><div class = centerbox><div class = fixation style=""font-size:100px"">+</div></div>",,test_cue,500.0,,,test,0.0,500.0,,,,,,,,,,,
213,,html-keyboard-response,213,160579,0.0-3.0-64.0,,"<div class = bigbox><div id=left_box></div></div><div class = bigbox><div id=right_box></div></div><div class = centerbox><div class = fixation style=""font-size:100px"">+</div></div>",,test_CTI,100.0,,,test,0.0,100.0,100.0,,,,,,,,,,
214,,html-keyboard-response,214,162081,0.0-3.0-65.0,,"<div class = bigbox><div id=left_box><div class='center-text star'>*</div></div></div><div class = bigbox><div id=right_box></div></div><div class = centerbox><div class = fixation style=""font-size:100px"">+</div></div>",,test_trial,1500.0,,,test,0.0,1000.0,,both,left,doublecue,",","[',', '.']",0,,,,
215,,html-keyboard-response,215,162567,0.0-3.0-66.0,,"<div class = bigbox><div id=left_box></div></div><div class = bigbox><div id=right_box></div></div><div class = centerbox><div class = fixation style=""font-size:100px"">+</div></div>",,test_ITI,484.7471461806074,,,test,0.0,484.7471461806074,,,,,,,,"{'min': 0, 'max': 5, 'mean': 0.5}",,,
216,,html-keyboard-response,216,163073,0.0-3.0-67.0,,"<div class = bigbox><div id=left_box></div></div><div class = bigbox><div id=right_box></div></div><div class = centerbox><div class = fixation style=""font-size:100px"">+</div></div>",,test_fixation,500.0,,,test,,500.0,,,,,,,,,,,
217,,html-keyboard-response,217,163575,0.0-3.0-68.0,,"<div class = bigbox><div id=right_box style=""border-width:15px""></div></div><div class = bigbox><div id=left_box></div></div><div class = centerbox><div class = fixation style=""font-size:100px"">+</div></div>",,test_cue,500.0,,,test,0.0,500.0,,,,,,,,,,,
218,,html-keyboard-response,218,164126,0.0-3.0-69.0,,"<div class = bigbox><div id=left_box></div></div><div class = bigbox><div id=right_box></div></div><div class = centerbox><div class = fixation style=""font-size:100px"">+</div></div>",,test_CTI,550.0,,,test,0.0,550.0,550.0,,,,,,,,,,
219,,html-keyboard-response,219,165629,0.0-3.0-70.0,,"<div class = bigbox><div id=right_box><div class='center-text star'>*</div></div></div><div class = bigbox><div id=left_box></div></div><div class = centerbox><div class = fixation style=""font-size:100px"">+</div></div>",,test_trial,1500.0,,,test,0.0,1000.0,,right,right,valid,.,"[',', '.']",0,,,,
220,,html-keyboard-response,220,166596,0.0-3.0-71.0,,"<div class = bigbox><div id=left_box></div></div><div class = bigbox><div id=right_box></div></div><div class = centerbox><div class = fixation style=""font-size:100px"">+</div></div>",,test_ITI,963.4273923583511,,,test,0.0,963.4273923583511,,,,,,,,"{'min': 0, 'max': 5, 'mean': 0.5}",,,
221,,html-keyboard-response,221,167102,0.0-3.0-72.0,,"<div class = bigbox><div id=left_box></div></div><div class = bigbox><div id=right_box></div></div><div class = centerbox><div class = fixation style=""font-size:100px"">+</div></div>",,test_fixation,500.0,,,test,,500.0,,,,,,,,,,,
222,,html-keyboard-response,222,167605,0.0-3.0-73.0,,"<div class = bigbox><div id=right_box style=""border-width:15px""></div></div><div class = bigbox><div id=left_box style=""border-width:15px""></div></div><div class = centerbox><div class = fixation style=""font-size:100px"">+</div></div>",,test_cue,500.0,,,test,0.0,500.0,,,,,,,,,,,
223,,html-keyboard-response,223,168611,0.0-3.0-74.0,,"<div class = bigbox><div id=left_box></div></div><div class = bigbox><div id=right_box></div></div><div class = centerbox><div class = fixation style=""font-size:100px"">+</div></div>",,test_CTI,1000.0,,,test,0.0,1000.0,1000.0,,,,,,,,,,
224,,html-keyboard-response,224,170117,0.0-3.0-75.0,,"<div class = bigbox><div id=right_box><div class='center-text star'>*</div></div></div><div class = bigbox><div id=left_box></div></div><div class = centerbox><div class = fixation style=""font-size:100px"">+</div></div>",,test_trial,1500.0,,,test,0.0,1000.0,,both,right,doublecue,.,"[',', '.']",0,,,,
225,,html-keyboard-response,225,170388,0.0-3.0-76.0,,"<div class = bigbox><div id=left_box></div></div><div class = bigbox><div id=right_box></div></div><div class = centerbox><div class = fixation style=""font-size:100px"">+</div></div>",,test_ITI,268.3775618512554,,,test,0.0,268.3775618512554,,,,,,,,"{'min': 0, 'max': 5, 'mean': 0.5}",,,
226,,html-keyboard-response,226,170890,0.0-3.0-77.0,,"<div class = bigbox><div id=left_box></div></div><div class = bigbox><div id=right_box></div></div><div class = centerbox><div class = fixation style=""font-size:100px"">+</div></div>",,test_fixation,500.0,,,test,,500.0,,,,,,,,,,,
227,,html-keyboard-response,227,171396,0.0-3.0-78.0,,"<div class = bigbox><div id=left_box style=""border-width:15px""></div></div><div class = bigbox><div id=right_box></div></div><div class = centerbox><div class = fixation style=""font-size:100px"">+</div></div>",,test_cue,500.0,,,test,0.0,500.0,,,,,,,,,,,
228,,html-keyboard-response,228,171951,0.0-3.0-79.0,,"<div class = bigbox><div id=left_box></div></div><div class = bigbox><div id=right_box></div></div><div class = centerbox><div class = fixation style=""font-size:100px"">+</div></div>",,test_CTI,550.0,,,test,0.0,550.0,550.0,,,,,,,,,,
229,,html-keyboard-response,229,173458,0.0-3.0-80.0,,"<div class = bigbox><div id=left_box><div class='center-text star'>*</div></div></div><div class = bigbox><div id=right_box></div></div><div class = centerbox><div class = fixation style=""font-size:100px"">+</div></div>",,test_trial,1500.0,,,test,0.0,1000.0,,left,left,valid,",","[',', '.']",0,,,,
230,,html-keyboard-response,230,173536,0.0-3.0-81.0,,"<div class = bigbox><div id=left_box></div></div><div class = bigbox><div id=right_box></div></div><div class = centerbox><div class = fixation style=""font-size:100px"">+</div></div>",,test_ITI,73.26346782974984,,,test,0.0,73.26346782974984,,,,,,,,"{'min': 0, 'max': 5, 'mean': 0.5}",,,
231,,html-keyboard-response,231,174042,0.0-3.0-82.0,,"<div class = bigbox><div id=left_box></div></div><div class = bigbox><div id=right_box></div></div><div class = centerbox><div class = fixation style=""font-size:100px"">+</div></div>",,test_fixation,500.0,,,test,,500.0,,,,,,,,,,,
232,,html-keyboard-response,232,174547,0.0-3.0-83.0,,"<div class = bigbox><div id=left_box style=""border-width:15px""></div></div><div class = bigbox><div id=right_box></div></div><div class = centerbox><div class = fixation style=""font-size:100px"">+</div></div>",,test_cue,500.0,,,test,0.0,500.0,,,,,,,,,,,
233,,html-keyboard-response,233,175553,0.0-3.0-84.0,,"<div class = bigbox><div id=left_box></div></div><div class = bigbox><div id=right_box></div></div><div class = centerbox><div class = fixation style=""font-size:100px"">+</div></div>",,test_CTI,1000.0,,,test,0.0,1000.0,1000.0,,,,,,,,,,
234,,html-keyboard-response,234,177060,0.0-3.0-85.0,,"<div class = bigbox><div id=left_box><div class='center-text star'>*</div></div></div><div class = bigbox><div id=right_box></div></div><div class = centerbox><div class = fixation style=""font-size:100px"">+</div></div>",,test_trial,1500.0,,,test,0.0,1000.0,,left,left,valid,",","[',', '.']",0,,,,
235,,html-keyboard-response,235,177603,0.0-3.0-86.0,,"<div class = bigbox><div id=left_box></div></div><div class = bigbox><div id=right_box></div></div><div class = centerbox><div class = fixation style=""font-size:100px"">+</div></div>",,test_ITI,540.7343077743877,,,test,0.0,540.7343077743877,,,,,,,,"{'min': 0, 'max': 5, 'mean': 0.5}",,,
236,,html-keyboard-response,236,178106,0.0-3.0-87.0,,"<div class = bigbox><div id=left_box></div></div><div class = bigbox><div id=right_box></div></div><div class = centerbox><div class = fixation style=""font-size:100px"">+</div></div>",,test_fixation,500.0,,,test,,500.0,,,,,,,,,,,
237,,html-keyboard-response,237,178613,0.0-3.0-88.0,,"<div class = bigbox><div id=right_box style=""border-width:15px""></div></div><div class = bigbox><div id=left_box></div></div><div class = centerbox><div class = fixation style=""font-size:100px"">+</div></div>",,test_cue,500.0,,,test,0.0,500.0,,,,,,,,,,,
238,,html-keyboard-response,238,178719,0.0-3.0-89.0,,"<div class = bigbox><div id=left_box></div></div><div class = bigbox><div id=right_box></div></div><div class = centerbox><div class = fixation style=""font-size:100px"">+</div></div>",,test_CTI,100.0,,,test,0.0,100.0,100.0,,,,,,,,,,
239,,html-keyboard-response,239,180225,0.0-3.0-90.0,,"<div class = bigbox><div id=right_box><div class='center-text star'>*</div></div></div><div class = bigbox><div id=left_box></div></div><div class = centerbox><div class = fixation style=""font-size:100px"">+</div></div>",,test_trial,1500.0,,,test,0.0,1000.0,,right,right,valid,.,"[',', '.']",0,,,,
240,,html-keyboard-response,240,180349,0.0-3.0-91.0,,"<div class = bigbox><div id=left_box></div></div><div class = bigbox><div id=right_box></div></div><div class = centerbox><div class = fixation style=""font-size:100px"">+</div></div>",,test_ITI,121.00784066708664,,,test,0.0,121.00784066708664,,,,,,,,"{'min': 0, 'max': 5, 'mean': 0.5}",,,
241,,html-keyboard-response,241,180855,0.0-3.0-92.0,,"<div class = bigbox><div id=left_box></div></div><div class = bigbox><div id=right_box></div></div><div class = centerbox><div class = fixation style=""font-size:100px"">+</div></div>",,test_fixation,500.0,,,test,,500.0,,,,,,,,,,,
242,,html-keyboard-response,242,181358,0.0-3.0-93.0,,"<div class = bigbox><div id=right_box style=""border-width:15px""></div></div><div class = bigbox><div id=left_box style=""border-width:15px""></div></div><div class = centerbox><div class = fixation style=""font-size:100px"">+</div></div>",,test_cue,500.0,,,test,0.0,500.0,,,,,,,,,,,
243,,html-keyboard-response,243,181913,0.0-3.0-94.0,,"<div class = bigbox><div id=left_box></div></div><div class = bigbox><div id=right_box></div></div><div class = centerbox><div class = fixation style=""font-size:100px"">+</div></div>",,test_CTI,550.0,,,test,0.0,550.0,550.0,,,,,,,,,,
244,,html-keyboard-response,244,183420,0.0-3.0-95.0,,"<div class = bigbox><div id=right_box><div class='center-text star'>*</div></div></div><div class = bigbox><div id=left_box></div></div><div class = centerbox><div class = fixation style=""font-size:100px"">+</div></div>",,test_trial,1500.0,,,test,0.0,1000.0,,both,right,doublecue,.,"[',', '.']",0,,,,
245,,html-keyboard-response,245,184050,0.0-3.0-96.0,,"<div class = bigbox><div id=left_box></div></div><div class = bigbox><div id=right_box></div></div><div class = centerbox><div class = fixation style=""font-size:100px"">+</div></div>",,test_ITI,623.4461871746165,,,test,0.0,623.4461871746165,,,,,,,,"{'min': 0, 'max': 5, 'mean': 0.5}",,,
246,,html-keyboard-response,246,184553,0.0-3.0-97.0,,"<div class = bigbox><div id=left_box></div></div><div class = bigbox><div id=right_box></div></div><div class = centerbox><div class = fixation style=""font-size:100px"">+</div></div>",,test_fixation,500.0,,,test,,500.0,,,,,,,,,,,
247,,html-keyboard-response,247,185057,0.0-3.0-98.0,,"<div class = bigbox><div id=left_box style=""border-width:15px""></div></div><div class = bigbox><div id=right_box style=""border-width:15px""></div></div><div class = centerbox><div class = fixation style=""font-size:100px"">+</div></div>",,test_cue,500.0,,,test,0.0,500.0,,,,,,,,,,,
248,,html-keyboard-response,248,186059,0.0-3.0-99.0,,"<div class = bigbox><div id=left_box></div></div><div class = bigbox><div id=right_box></div></div><div class = centerbox><div class = fixation style=""font-size:100px"">+</div></div>",,test_CTI,1000.0,,,test,0.0,1000.0,1000.0,,,,,,,,,,
249,,html-keyboard-response,249,187566,0.0-3.0-100.0,,"<div class = bigbox><div id=left_box><div class='center-text star'>*</div></div></div><div class = bigbox><div id=right_box></div></div><div class = centerbox><div class = fixation style=""font-size:100px"">+</div></div>",,test_trial,1500.0,,,test,0.0,1000.0,,both,left,doublecue,",","[',', '.']",0,,,,
250,,html-keyboard-response,250,188265,0.0-3.0-101.0,,"<div class = bigbox><div id=left_box></div></div><div class = bigbox><div id=right_box></div></div><div class = centerbox><div class = fixation style=""font-size:100px"">+</div></div>",,test_ITI,692.703500382906,,,test,0.0,692.703500382906,,,,,,,,"{'min': 0, 'max': 5, 'mean': 0.5}",,,
251,,html-keyboard-response,251,188768,0.0-3.0-102.0,,"<div class = bigbox><div id=left_box></div></div><div class = bigbox><div id=right_box></div></div><div class = centerbox><div class = fixation style=""font-size:100px"">+</div></div>",,test_fixation,500.0,,,test,,500.0,,,,,,,,,,,
252,,html-keyboard-response,252,189272,0.0-3.0-103.0,,"<div class = bigbox><div id=right_box style=""border-width:15px""></div></div><div class = bigbox><div id=left_box style=""border-width:15px""></div></div><div class = centerbox><div class = fixation style=""font-size:100px"">+</div></div>",,test_cue,500.0,,,test,0.0,500.0,,,,,,,,,,,
253,,html-keyboard-response,253,189375,0.0-3.0-104.0,,"<div class = bigbox><div id=left_box></div></div><div class = bigbox><div id=right_box></div></div><div class = centerbox><div class = fixation style=""font-size:100px"">+</div></div>",,test_CTI,100.0,,,test,0.0,100.0,100.0,,,,,,,,,,
254,,html-keyboard-response,254,190881,0.0-3.0-105.0,,"<div class = bigbox><div id=right_box><div class='center-text star'>*</div></div></div><div class = bigbox><div id=left_box></div></div><div class = centerbox><div class = fixation style=""font-size:100px"">+</div></div>",,test_trial,1500.0,,,test,0.0,1000.0,,both,right,doublecue,.,"[',', '.']",0,,,,
255,,html-keyboard-response,255,191103,0.0-3.0-106.0,,"<div class = bigbox><div id=left_box></div></div><div class = bigbox><div id=right_box></div></div><div class = centerbox><div class = fixation style=""font-size:100px"">+</div></div>",,test_ITI,217.01097114135766,,,test,0.0,217.01097114135766,,,,,,,,"{'min': 0, 'max': 5, 'mean': 0.5}",,,
256,,html-keyboard-response,256,191607,0.0-3.0-107.0,,"<div class = bigbox><div id=left_box></div></div><div class = bigbox><div id=right_box></div></div><div class = centerbox><div class = fixation style=""font-size:100px"">+</div></div>",,test_fixation,500.0,,,test,,500.0,,,,,,,,,,,
257,,html-keyboard-response,257,192114,0.0-3.0-108.0,,"<div class = bigbox><div id=left_box></div></div><div class = bigbox><div id=right_box style=""border-width:15px""></div></div><div class = centerbox><div class = fixation style=""font-size:100px"">+</div></div>",,test_cue,500.0,,,test,0.0,500.0,,,,,,,,,,,
258,,html-keyboard-response,258,192666,0.0-3.0-109.0,,"<div class = bigbox><div id=left_box></div></div><div class = bigbox><div id=right_box></div></div><div class = centerbox><div class = fixation style=""font-size:100px"">+</div></div>",,test_CTI,550.0,,,test,0.0,550.0,550.0,,,,,,,,,,
259,,html-keyboard-response,259,194173,0.0-3.0-110.0,399.0,"<div class = bigbox><div id=left_box><div class='center-text star'>*</div></div></div><div class = bigbox><div id=right_box></div></div><div class = centerbox><div class = fixation style=""font-size:100px"">+</div></div>",",",test_trial,1500.0,,,test,0.0,1000.0,,right,left,invalid,",","[',', '.']",1,,,,
260,,html-keyboard-response,260,195052,0.0-3.0-111.0,,"<div class = bigbox><div id=left_box></div></div><div class = bigbox><div id=right_box></div></div><div class = centerbox><div class = fixation style=""font-size:100px"">+</div></div>",,test_ITI,873.3298752443512,,,test,0.0,873.3298752443512,,,,,,,,"{'min': 0, 'max': 5, 'mean': 0.5}",,,
261,,html-keyboard-response,261,195558,0.0-3.0-112.0,,"<div class = bigbox><div id=left_box></div></div><div class = bigbox><div id=right_box></div></div><div class = centerbox><div class = fixation style=""font-size:100px"">+</div></div>",,test_fixation,500.0,,,test,,500.0,,,,,,,,,,,
262,,html-keyboard-response,262,196065,0.0-3.0-113.0,,"<div class = bigbox><div id=right_box style=""border-width:15px""></div></div><div class = bigbox><div id=left_box></div></div><div class = centerbox><div class = fixation style=""font-size:100px"">+</div></div>",,test_cue,500.0,,,test,0.0,500.0,,,,,,,,,,,
263,,html-keyboard-response,263,196171,0.0-3.0-114.0,,"<div class = bigbox><div id=left_box></div></div><div class = bigbox><div id=right_box></div></div><div class = centerbox><div class = fixation style=""font-size:100px"">+</div></div>",,test_CTI,100.0,,,test,0.0,100.0,100.0,,,,,,,,,,
264,,html-keyboard-response,264,197678,0.0-3.0-115.0,360.0,"<div class = bigbox><div id=right_box><div class='center-text star'>*</div></div></div><div class = bigbox><div id=left_box></div></div><div class = centerbox><div class = fixation style=""font-size:100px"">+</div></div>",.,test_trial,1500.0,,,test,0.0,1000.0,,right,right,valid,.,"[',', '.']",1,,,,
265,,html-keyboard-response,265,197863,0.0-3.0-116.0,,"<div class = bigbox><div id=left_box></div></div><div class = bigbox><div id=right_box></div></div><div class = centerbox><div class = fixation style=""font-size:100px"">+</div></div>",,test_ITI,183.53237634227625,,,test,0.0,183.53237634227625,,,,,,,,"{'min': 0, 'max': 5, 'mean': 0.5}",,,
266,,html-keyboard-response,266,198367,0.0-3.0-117.0,,"<div class = bigbox><div id=left_box></div></div><div class = bigbox><div id=right_box></div></div><div class = centerbox><div class = fixation style=""font-size:100px"">+</div></div>",,test_fixation,500.0,,,test,,500.0,,,,,,,,,,,
267,,html-keyboard-response,267,198872,0.0-3.0-118.0,,"<div class = bigbox><div id=left_box></div></div><div class = bigbox><div id=right_box></div></div><div class = centerbox><div class = fixation style=""font-size:100px"">+</div></div>",,test_cue,500.0,,,test,0.0,500.0,,,,,,,,,,,
268,,html-keyboard-response,268,199876,0.0-3.0-119.0,,"<div class = bigbox><div id=left_box></div></div><div class = bigbox><div id=right_box></div></div><div class = centerbox><div class = fixation style=""font-size:100px"">+</div></div>",,test_CTI,1000.0,,,test,0.0,1000.0,1000.0,,,,,,,,,,
269,,html-keyboard-response,269,201382,0.0-3.0-120.0,629.0,"<div class = bigbox><div id=left_box><div class='center-text star'>*</div></div></div><div class = bigbox><div id=right_box></div></div><div class = centerbox><div class = fixation style=""font-size:100px"">+</div></div>",",",test_trial,1500.0,,,test,0.0,1000.0,,none,left,nocue,",","[',', '.']",1,,,,
270,,html-keyboard-response,270,202375,0.0-3.0-121.0,,"<div class = bigbox><div id=left_box></div></div><div class = bigbox><div id=right_box></div></div><div class = centerbox><div class = fixation style=""font-size:100px"">+</div></div>",,test_ITI,987.4194704797684,,,test,0.0,987.4194704797684,,,,,,,,"{'min': 0, 'max': 5, 'mean': 0.5}",,,
271,,html-keyboard-response,271,202880,0.0-3.0-122.0,,"<div class = bigbox><div id=left_box></div></div><div class = bigbox><div id=right_box></div></div><div class = centerbox><div class = fixation style=""font-size:100px"">+</div></div>",,test_fixation,500.0,,,test,,500.0,,,,,,,,,,,
272,,html-keyboard-response,272,203383,0.0-3.0-123.0,,"<div class = bigbox><div id=left_box style=""border-width:15px""></div></div><div class = bigbox><div id=right_box style=""border-width:15px""></div></div><div class = centerbox><div class = fixation style=""font-size:100px"">+</div></div>",,test_cue,500.0,,,test,0.0,500.0,,,,,,,,,,,
273,,html-keyboard-response,273,203937,0.0-3.0-124.0,,"<div class = bigbox><div id=left_box></div></div><div class = bigbox><div id=right_box></div></div><div class = centerbox><div class = fixation style=""font-size:100px"">+</div></div>",,test_CTI,550.0,,,test,0.0,550.0,550.0,,,,,,,,,,
274,,html-keyboard-response,274,205443,0.0-3.0-125.0,966.0,"<div class = bigbox><div id=left_box><div class='center-text star'>*</div></div></div><div class = bigbox><div id=right_box></div></div><div class = centerbox><div class = fixation style=""font-size:100px"">+</div></div>",",",test_trial,1500.0,,,test,0.0,1000.0,,both,left,doublecue,",","[',', '.']",1,,,,
275,,html-keyboard-response,275,205524,0.0-3.0-126.0,,"<div class = bigbox><div id=left_box></div></div><div class = bigbox><div id=right_box></div></div><div class = centerbox><div class = fixation style=""font-size:100px"">+</div></div>",,test_ITI,76.41572322360751,,,test,0.0,76.41572322360751,,,,,,,,"{'min': 0, 'max': 5, 'mean': 0.5}",,,
276,,html-keyboard-response,276,206031,0.0-3.0-127.0,,"<div class = bigbox><div id=left_box></div></div><div class = bigbox><div id=right_box></div></div><div class = centerbox><div class = fixation style=""font-size:100px"">+</div></div>",,test_fixation,500.0,,,test,,500.0,,,,,,,,,,,
277,,html-keyboard-response,277,206536,0.0-3.0-128.0,,"<div class = bigbox><div id=left_box></div></div><div class = bigbox><div id=right_box></div></div><div class = centerbox><div class = fixation style=""font-size:100px"">+</div></div>",,test_cue,500.0,,,test,0.0,500.0,,,,,,,,,,,
278,,html-keyboard-response,278,207539,0.0-3.0-129.0,,"<div class = bigbox><div id=left_box></div></div><div class = bigbox><div id=right_box></div></div><div class = centerbox><div class = fixation style=""font-size:100px"">+</div></div>",,test_CTI,1000.0,,,test,0.0,1000.0,1000.0,,,,,,,,,,
279,,html-keyboard-response,279,209042,0.0-3.0-130.0,663.0,"<div class = bigbox><div id=left_box><div class='center-text star'>*</div></div></div><div class = bigbox><div id=right_box></div></div><div class = centerbox><div class = fixation style=""font-size:100px"">+</div></div>",",",test_trial,1500.0,,,test,0.0,1000.0,,none,left,nocue,",","[',', '.']",1,,,,
280,,html-keyboard-response,280,209198,0.0-3.0-131.0,,"<div class = bigbox><div id=left_box></div></div><div class = bigbox><div id=right_box></div></div><div class = centerbox><div class = fixation style=""font-size:100px"">+</div></div>",,test_ITI,150.37945287454812,,,test,0.0,150.37945287454812,,,,,,,,"{'min': 0, 'max': 5, 'mean': 0.5}",,,
281,,html-keyboard-response,281,209703,0.0-3.0-132.0,,"<div class = bigbox><div id=left_box></div></div><div class = bigbox><div id=right_box></div></div><div class = centerbox><div class = fixation style=""font-size:100px"">+</div></div>",,test_fixation,500.0,,,test,,500.0,,,,,,,,,,,
282,,html-keyboard-response,282,210205,0.0-3.0-133.0,,"<div class = bigbox><div id=left_box></div></div><div class = bigbox><div id=right_box></div></div><div class = centerbox><div class = fixation style=""font-size:100px"">+</div></div>",,test_cue,500.0,,,test,0.0,500.0,,,,,,,,,,,
283,,html-keyboard-response,283,210311,0.0-3.0-134.0,,"<div class = bigbox><div id=left_box></div></div><div class = bigbox><div id=right_box></div></div><div class = centerbox><div class = fixation style=""font-size:100px"">+</div></div>",,test_CTI,100.0,,,test,0.0,100.0,100.0,,,,,,,,,,
284,,html-keyboard-response,284,211818,0.0-3.0-135.0,490.0,"<div class = bigbox><div id=left_box><div class='center-text star'>*</div></div></div><div class = bigbox><div id=right_box></div></div><div class = centerbox><div class = fixation style=""font-size:100px"">+</div></div>",",",test_trial,1500.0,,,test,0.0,1000.0,,none,left,nocue,",","[',', '.']",1,,,,
285,,html-keyboard-response,285,212222,0.0-3.0-136.0,,"<div class = bigbox><div id=left_box></div></div><div class = bigbox><div id=right_box></div></div><div class = centerbox><div class = fixation style=""font-size:100px"">+</div></div>",,test_ITI,398.80880166704503,,,test,0.0,398.80880166704503,,,,,,,,"{'min': 0, 'max': 5, 'mean': 0.5}",,,
286,,html-keyboard-response,286,212725,0.0-3.0-137.0,,"<div class = bigbox><div id=left_box></div></div><div class = bigbox><div id=right_box></div></div><div class = centerbox><div class = fixation style=""font-size:100px"">+</div></div>",,test_fixation,500.0,,,test,,500.0,,,,,,,,,,,
287,,html-keyboard-response,287,213228,0.0-3.0-138.0,,"<div class = bigbox><div id=right_box></div></div><div class = bigbox><div id=left_box></div></div><div class = centerbox><div class = fixation style=""font-size:100px"">+</div></div>",,test_cue,500.0,,,test,0.0,500.0,,,,,,,,,,,
288,,html-keyboard-response,288,214235,0.0-3.0-139.0,,"<div class = bigbox><div id=left_box></div></div><div class = bigbox><div id=right_box></div></div><div class = centerbox><div class = fixation style=""font-size:100px"">+</div></div>",,test_CTI,1000.0,,,test,0.0,1000.0,1000.0,,,,,,,,,,
289,,html-keyboard-response,289,215739,0.0-3.0-140.0,342.0,"<div class = bigbox><div id=right_box><div class='center-text star'>*</div></div></div><div class = bigbox><div id=left_box></div></div><div class = centerbox><div class = fixation style=""font-size:100px"">+</div></div>",.,test_trial,1500.0,,,test,0.0,1000.0,,none,right,nocue,.,"[',', '.']",1,,,,
290,,html-keyboard-response,290,217445,0.0-3.0-141.0,,"<div class = bigbox><div id=left_box></div></div><div class = bigbox><div id=right_box></div></div><div class = centerbox><div class = fixation style=""font-size:100px"">+</div></div>",,test_ITI,1699.2228103180614,,,test,0.0,1699.2228103180614,,,,,,,,"{'min': 0, 'max': 5, 'mean': 0.5}",,,
291,,html-keyboard-response,291,217950,0.0-3.0-142.0,,"<div class = bigbox><div id=left_box></div></div><div class = bigbox><div id=right_box></div></div><div class = centerbox><div class = fixation style=""font-size:100px"">+</div></div>",,test_fixation,500.0,,,test,,500.0,,,,,,,,,,,
292,,html-keyboard-response,292,218452,0.0-3.0-143.0,,"<div class = bigbox><div id=right_box style=""border-width:15px""></div></div><div class = bigbox><div id=left_box style=""border-width:15px""></div></div><div class = centerbox><div class = fixation style=""font-size:100px"">+</div></div>",,test_cue,500.0,,,test,0.0,500.0,,,,,,,,,,,
293,,html-keyboard-response,293,219008,0.0-3.0-144.0,,"<div class = bigbox><div id=left_box></div></div><div class = bigbox><div id=right_box></div></div><div class = centerbox><div class = fixation style=""font-size:100px"">+</div></div>",,test_CTI,550.0,,,test,0.0,550.0,550.0,,,,,,,,,,
294,,html-keyboard-response,294,220515,0.0-3.0-145.0,470.0,"<div class = bigbox><div id=right_box><div class='center-text star'>*</div></div></div><div class = bigbox><div id=left_box></div></div><div class = centerbox><div class = fixation style=""font-size:100px"">+</div></div>",.,test_trial,1500.0,,,test,0.0,1000.0,,both,right,doublecue,.,"[',', '.']",1,,,,
295,,html-keyboard-response,295,220755,0.0-3.0-146.0,,"<div class = bigbox><div id=left_box></div></div><div class = bigbox><div id=right_box></div></div><div class = centerbox><div class = fixation style=""font-size:100px"">+</div></div>",,test_ITI,235.60634302114357,,,test,0.0,235.60634302114357,,,,,,,,"{'min': 0, 'max': 5, 'mean': 0.5}",,,
296,,html-keyboard-response,296,221260,0.0-3.0-147.0,,"<div class = bigbox><div id=left_box></div></div><div class = bigbox><div id=right_box></div></div><div class = centerbox><div class = fixation style=""font-size:100px"">+</div></div>",,test_fixation,500.0,,,test,,500.0,,,,,,,,,,,
297,,html-keyboard-response,297,221765,0.0-3.0-148.0,,"<div class = bigbox><div id=left_box style=""border-width:15px""></div></div><div class = bigbox><div id=right_box style=""border-width:15px""></div></div><div class = centerbox><div class = fixation style=""font-size:100px"">+</div></div>",,test_cue,500.0,,,test,0.0,500.0,,,,,,,,,,,
298,,html-keyboard-response,298,221869,0.0-3.0-149.0,,"<div class = bigbox><div id=left_box></div></div><div class = bigbox><div id=right_box></div></div><div class = centerbox><div class = fixation style=""font-size:100px"">+</div></div>",,test_CTI,100.0,,,test,0.0,100.0,100.0,,,,,,,,,,
299,,html-keyboard-response,299,223374,0.0-3.0-150.0,805.0,"<div class = bigbox><div id=left_box><div class='center-text star'>*</div></div></div><div class = bigbox><div id=right_box></div></div><div class = centerbox><div class = fixation style=""font-size:100px"">+</div></div>",",",test_trial,1500.0,,,test,0.0,1000.0,,both,left,doublecue,",","[',', '.']",1,,,,
300,,html-keyboard-response,300,223412,0.0-3.0-151.0,,"<div class = bigbox><div id=left_box></div></div><div class = bigbox><div id=right_box></div></div><div class = centerbox><div class = fixation style=""font-size:100px"">+</div></div>",,test_ITI,35.06167882095738,,,test,0.0,35.06167882095738,,,,,,,,"{'min': 0, 'max': 5, 'mean': 0.5}",,,
301,,html-keyboard-response,301,223919,0.0-3.0-152.0,,"<div class = bigbox><div id=left_box></div></div><div class = bigbox><div id=right_box></div></div><div class = centerbox><div class = fixation style=""font-size:100px"">+</div></div>",,test_fixation,500.0,,,test,,500.0,,,,,,,,,,,
302,,html-keyboard-response,302,224425,0.0-3.0-153.0,,"<div class = bigbox><div id=right_box style=""border-width:15px""></div></div><div class = bigbox><div id=left_box style=""border-width:15px""></div></div><div class = centerbox><div class = fixation style=""font-size:100px"">+</div></div>",,test_cue,500.0,,,test,0.0,500.0,,,,,,,,,,,
303,,html-keyboard-response,303,225427,0.0-3.0-154.0,,"<div class = bigbox><div id=left_box></div></div><div class = bigbox><div id=right_box></div></div><div class = centerbox><div class = fixation style=""font-size:100px"">+</div></div>",,test_CTI,1000.0,,,test,0.0,1000.0,1000.0,,,,,,,,,,
