,success,trial_type,trial_index,time_elapsed,internal_node_id,rt,stimulus,response,trial_id,trial_duration,view_history,exp_stage,block_num,stimulus_duration,choices,condition,number,correct_response,whichQuadrant,magnitude,parity,current_trial,current_block,correct_trial,ITIParams,current_question,current_key_answer,exp_id,attention_check_percent
0,True,fullscreen,0,1839,0.0-0.0,,,,,,,,,,,,,,,,,,,,,,,,
1,,html-keyboard-response,1,1978,0.0-1.0-0.0,136.0,"<div class = centerbox><p class = center-block-text>
    
  <p class=""center-block-text"">
    Welcome! This experiment will take around 11 minutes.
  </p>
  <p class=""center-block-text"">
    To avoid technical issues, please keep the experiment tab (on Chrome or Firefox) active and in fullscreen mode for the whole duration of each task.
  </p>
  <p class=""center-block-text""> Press <i>enter</i> to begin.</p>

    </p></div>",enter,instruction_feedback,180000.0,,,,,,,,,,,,,,,,,,,
2,,instructions,2,4394,0.0-1.0-1.0,2416.0,,,instructions,,"[{'page_index': 0, 'viewing_time': 2247}, {'page_index': 1, 'viewing_time': 169}]",,,,,,,,,,,,,,,,,,
3,,html-keyboard-response,3,5117,0.0-2.0-0.0,721.0,"<div class = bigbox><div class = picture_box><p class = block-text>
    <div class = centerbox><p class = center-block-text>Press <i>enter</i> to begin practice.</p></div>
    </font></p></div></div>",enter,practice_feedback,60000.0,,practice,0.0,,,,,,,,,,,,,,,,
4,,html-keyboard-response,4,5620,0.0-2.0-1.0,,<div class = centerbox><div class = fixation>+</div></div>,,practice_fixation,500.0,,practice,0.0,500.0,,,,,,,,,,,,,,,
5,,html-keyboard-response,5,5778,0.0-2.0-2.0,,<div class = bigbox><div class = quad_box><div class = decision-top-left></div></div></div>,,practice_cue,150.0,,practice,0.0,150.0,,,,,,,,,,,,,,,
6,,html-keyboard-response,6,7286,0.0-2.0-3.0,834.0,<div class = bigbox><div class = quad_box><div class = decision-top-left><div class = gng_number><div class = cue-text><img class = center src='/static/experiments/spatial_task_switching_rdoc/images/3.png'></img></div></div></div></div></div>,.,practice_trial,1500.0,,practice,0.0,1000.0,"[',', '.']",na,3.0,.,1.0,low,odd,1.0,0.0,1,,,,,
7,,html-keyboard-response,7,7790,0.0-2.0-4.0,,<div class = fb_box><div class = center-text><font size =20>Correct!</font></div></div>,,practice_feedback,500.0,,practice,,500.0,,,,,,,,,,,,,,,
8,,html-keyboard-response,8,7898,0.0-2.0-5.0,,<div class = centerbox><div class = fixation>+</div></div>,,practice_ITI,101.33643814395337,,practice,0.0,101.33643814395337,,,,,,,,,,,"{'min': 0, 'max': 5, 'mean': 0.5}",,,,
9,,html-keyboard-response,9,8402,0.0-2.0-6.0,,<div class = centerbox><div class = fixation>+</div></div>,,practice_fixation,500.0,,practice,0.0,500.0,,,,,,,,,,,,,,,
10,,html-keyboard-response,10,8557,0.0-2.0-7.0,,<div class = bigbox><div class = quad_box><div class = decision-top-right></div></div></div>,,practice_cue,150.0,,practice,0.0,150.0,,,,,,,,,,,,,,,
11,,html-keyboard-response,11,10064,0.0-2.0-8.0,790.0,<div class = bigbox><div class = quad_box><div class = decision-top-right><div class = gng_number><div class = cue-text><img class = center src='/static/experiments/spatial_task_switching_rdoc/images/7.png'></img></div></div></div></div></div>,.,practice_trial,1500.0,,practice,0.0,1000.0,"[',', '.']",tstay_cswitch,7.0,",",2.0,high,odd,2.0,0.0,0,,,,,
12,,html-keyboard-response,12,10568,0.0-2.0-9.0,,<div class = fb_box><div class = center-text><font size =20>Incorrect</font></div></div>,,practice_feedback,500.0,,practice,,500.0,,,,,,,,,,,,,,,
13,,html-keyboard-response,13,11013,0.0-2.0-10.0,,<div class = centerbox><div class = fixation>+</div></div>,,practice_ITI,443.90403799096504,,practice,0.0,443.90403799096504,,,,,,,,,,,"{'min': 0, 'max': 5, 'mean': 0.5}",,,,
14,,html-keyboard-response,14,11516,0.0-2.0-11.0,,<div class = centerbox><div class = fixation>+</div></div>,,practice_fixation,500.0,,practice,0.0,500.0,,,,,,,,,,,,,,,
15,,html-keyboard-response,15,11673,0.0-2.0-12.0,,<div class = bigbox><div class = quad_box><div class = decision-top-right></div></div></div>,,practice_cue,150.0,,practice,0.0,150.0,,,,,,,,,,,,,,,
16,,html-keyboard-response,16,13180,0.0-2.0-13.0,664.0,<div class = bigbox><div class = quad_box><div class = decision-top-right><div class = gng_number><div class = cue-text><img class = center src='/static/experiments/spatial_task_switching_rdoc/images/3.png'></img></div></div></div></div></div>,.,practice_trial,1500.0,,practice,0.0,1000.0,"[',', '.']",tstay_cstay,3.0,.,2.0,low,odd,3.0,0.0,1,,,,,
17,,html-keyboard-response,17,13685,0.0-2.0-14.0,,<div class = fb_box><div class = center-text><font size =20>Correct!</font></div></div>,,practice_feedback,500.0,,practice,,500.0,,,,,,,,,,,,,,,
18,,html-keyboard-response,18,14738,0.0-2.0-15.0,,<div class = centerbox><div class = fixation>+</div></div>,,practice_ITI,1047.672628398079,,practice,0.0,1047.672628398079,,,,,,,,,,,"{'min': 0, 'max': 5, 'mean': 0.5}",,,,
19,,html-keyboard-response,19,15241,0.0-2.0-16.0,,<div class = centerbox><div class = fixation>+</div></div>,,practice_fixation,500.0,,practice,0.0,500.0,,,,,,,,,,,,,,,
20,,html-keyboard-response,20,15393,0.0-2.0-17.0,,<div class = bigbox><div class = quad_box><div class = decision-bottom-right></div></div></div>,,practice_cue,150.0,,practice,0.0,150.0,,,,,,,,,,,,,,,
21,,html-keyboard-response,21,16900,0.0-2.0-18.0,919.0,<div class = bigbox><div class = quad_box><div class = decision-bottom-right><div class = gng_number><div class = cue-text><img class = center src='/static/experiments/spatial_task_switching_rdoc/images/3.png'></img></div></div></div></div></div>,.,practice_trial,1500.0,,practice,0.0,1000.0,"[',', '.']",tswitch_cswitch,3.0,.,3.0,low,odd,4.0,0.0,1,,,,,
22,,html-keyboard-response,22,17405,0.0-2.0-19.0,,<div class = fb_box><div class = center-text><font size =20>Correct!</font></div></div>,,practice_feedback,500.0,,practice,,500.0,,,,,,,,,,,,,,,
23,,html-keyboard-response,23,18471,0.0-2.0-20.0,,<div class = centerbox><div class = fixation>+</div></div>,,practice_ITI,1064.9293176911194,,practice,0.0,1064.9293176911194,,,,,,,,,,,"{'min': 0, 'max': 5, 'mean': 0.5}",,,,
24,,html-keyboard-response,24,18975,0.0-2.0-21.0,,<div class = centerbox><div class = fixation>+</div></div>,,practice_fixation,500.0,,practice,0.0,500.0,,,,,,,,,,,,,,,
25,,html-keyboard-response,25,19132,0.0-2.0-22.0,,<div class = bigbox><div class = quad_box><div class = decision-top-right></div></div></div>,,practice_cue,150.0,,practice,0.0,150.0,,,,,,,,,,,,,,,
26,,html-keyboard-response,26,20639,0.0-2.0-23.0,730.0,<div class = bigbox><div class = quad_box><div class = decision-top-right><div class = gng_number><div class = cue-text><img class = center src='/static/experiments/spatial_task_switching_rdoc/images/6.png'></img></div></div></div></div></div>,.,practice_trial,1500.0,,practice,0.0,1000.0,"[',', '.']",tswitch_cswitch,6.0,",",2.0,high,even,5.0,0.0,0,,,,,
27,,html-keyboard-response,27,21142,0.0-2.0-24.0,,<div class = fb_box><div class = center-text><font size =20>Incorrect</font></div></div>,,practice_feedback,500.0,,practice,,500.0,,,,,,,,,,,,,,,
28,,html-keyboard-response,28,21569,0.0-2.0-25.0,,<div class = centerbox><div class = fixation>+</div></div>,,practice_ITI,421.47657586813,,practice,0.0,421.47657586813,,,,,,,,,,,"{'min': 0, 'max': 5, 'mean': 0.5}",,,,
29,,html-keyboard-response,29,22798,0.0-2.1-0.1,1226.0,"<div class = bigbox><div class = picture_box><p class = block-text>
    <div class = centerbox><p class = block-text>Please take this time to read your feedback! This screen will advance automatically in 1 minute.</p>
          <p class=""block-text"">Your accuracy is low. Remember:</p>
          
  <ul style=""text-align:left;"">
    <li>Top 2 quadrants: judge number on magnitude</li>
    <li>high: index finger</li>
    <li>low: middle finger</li>
    <li>Bottom 2 quadrants: judge number on parity</li>
    <li>even: index finger</li>
    <li>odd: middle finger</li>
  </ul>
        
        <p class=""block-text"">You have been responding too slowly.<p class = block-text>Try to respond as quickly and accurately as possible.</p></p>
      <p class=""block-text"">We are now going to repeat the practice round.</p><p class=""block-text"">Press <i>enter</i> to begin.</p></div>
    </font></p></div></div>",enter,practice_feedback,60000.0,,practice,1.0,,,,,,,,,,,,,,,,
30,,html-keyboard-response,30,23302,0.0-2.1-1.1,,<div class = centerbox><div class = fixation>+</div></div>,,practice_fixation,500.0,,practice,1.0,500.0,,,,,,,,,,,,,,,
31,,html-keyboard-response,31,23458,0.0-2.1-2.1,,<div class = bigbox><div class = quad_box><div class = decision-top-left></div></div></div>,,practice_cue,150.0,,practice,1.0,150.0,,,,,,,,,,,,,,,
32,,html-keyboard-response,32,24965,0.0-2.1-3.1,505.0,<div class = bigbox><div class = quad_box><div class = decision-top-left><div class = gng_number><div class = cue-text><img class = center src='/static/experiments/spatial_task_switching_rdoc/images/7.png'></img></div></div></div></div></div>,",",practice_trial,1500.0,,practice,1.0,1000.0,"[',', '.']",na,7.0,",",1.0,high,odd,1.0,1.0,1,,,,,
33,,html-keyboard-response,33,25472,0.0-2.1-4.1,,<div class = fb_box><div class = center-text><font size =20>Correct!</font></div></div>,,practice_feedback,500.0,,practice,,500.0,,,,,,,,,,,,,,,
34,,html-keyboard-response,34,26060,0.0-2.1-5.1,,<div class = centerbox><div class = fixation>+</div></div>,,practice_ITI,584.5001024094403,,practice,1.0,584.5001024094403,,,,,,,,,,,"{'min': 0, 'max': 5, 'mean': 0.5}",,,,
35,,html-keyboard-response,35,26562,0.0-2.1-6.1,,<div class = centerbox><div class = fixation>+</div></div>,,practice_fixation,500.0,,practice,1.0,500.0,,,,,,,,,,,,,,,
36,,html-keyboard-response,36,26719,0.0-2.1-7.1,,<div class = bigbox><div class = quad_box><div class = decision-top-left></div></div></div>,,practice_cue,150.0,,practice,1.0,150.0,,,,,,,,,,,,,,,
37,,html-keyboard-response,37,28226,0.0-2.1-8.1,491.0,<div class = bigbox><div class = quad_box><div class = decision-top-left><div class = gng_number><div class = cue-text><img class = center src='/static/experiments/spatial_task_switching_rdoc/images/8.png'></img></div></div></div></div></div>,",",practice_trial,1500.0,,practice,1.0,1000.0,"[',', '.']",tstay_cstay,8.0,",",1.0,high,even,2.0,1.0,1,,,,,
38,,html-keyboard-response,38,28731,0.0-2.1-9.1,,<div class = fb_box><div class = center-text><font size =20>Correct!</font></div></div>,,practice_feedback,500.0,,practice,,500.0,,,,,,,,,,,,,,,
39,,html-keyboard-response,39,29288,0.0-2.1-10.1,,<div class = centerbox><div class = fixation>+</div></div>,,practice_ITI,553.293556833545,,practice,1.0,553.293556833545,,,,,,,,,,,"{'min': 0, 'max': 5, 'mean': 0.5}",,,,
40,,html-keyboard-response,40,29793,0.0-2.1-11.1,,<div class = centerbox><div class = fixation>+</div></div>,,practice_fixation,500.0,,practice,1.0,500.0,,,,,,,,,,,,,,,
41,,html-keyboard-response,41,29948,0.0-2.1-12.1,,<div class = bigbox><div class = quad_box><div class = decision-top-right></div></div></div>,,practice_cue,150.0,,practice,1.0,150.0,,,,,,,,,,,,,,,
42,,html-keyboard-response,42,31455,0.0-2.1-13.1,1042.0,<div class = bigbox><div class = quad_box><div class = decision-top-right><div class = gng_number><div class = cue-text><img class = center src='/static/experiments/spatial_task_switching_rdoc/images/8.png'></img></div></div></div></div></div>,",",practice_trial,1500.0,,practice,1.0,1000.0,"[',', '.']",tstay_cswitch,8.0,",",2.0,high,even,3.0,1.0,1,,,,,
43,,html-keyboard-response,43,31959,0.0-2.1-14.1,,<div class = fb_box><div class = center-text><font size =20>Correct!</font></div></div>,,practice_feedback,500.0,,practice,,500.0,,,,,,,,,,,,,,,
44,,html-keyboard-response,44,33044,0.0-2.1-15.1,,<div class = centerbox><div class = fixation>+</div></div>,,practice_ITI,1079.754668122555,,practice,1.0,1079.754668122555,,,,,,,,,,,"{'min': 0, 'max': 5, 'mean': 0.5}",,,,
45,,html-keyboard-response,45,33548,0.0-2.1-16.1,,<div class = centerbox><div class = fixation>+</div></div>,,practice_fixation,500.0,,practice,1.0,500.0,,,,,,,,,,,,,,,
46,,html-keyboard-response,46,33704,0.0-2.1-17.1,,<div class = bigbox><div class = quad_box><div class = decision-bottom-right></div></div></div>,,practice_cue,150.0,,practice,1.0,150.0,,,,,,,,,,,,,,,
47,,html-keyboard-response,47,35212,0.0-2.1-18.1,617.0,<div class = bigbox><div class = quad_box><div class = decision-bottom-right><div class = gng_number><div class = cue-text><img class = center src='/static/experiments/spatial_task_switching_rdoc/images/4.png'></img></div></div></div></div></div>,",",practice_trial,1500.0,,practice,1.0,1000.0,"[',', '.']",tswitch_cswitch,4.0,",",3.0,low,even,4.0,1.0,1,,,,,
48,,html-keyboard-response,48,35715,0.0-2.1-19.1,,<div class = fb_box><div class = center-text><font size =20>Correct!</font></div></div>,,practice_feedback,500.0,,practice,,500.0,,,,,,,,,,,,,,,
49,,html-keyboard-response,49,38024,0.0-2.1-20.1,,<div class = centerbox><div class = fixation>+</div></div>,,practice_ITI,2305.2133083310227,,practice,1.0,2305.2133083310227,,,,,,,,,,,"{'min': 0, 'max': 5, 'mean': 0.5}",,,,
50,,html-keyboard-response,50,38529,0.0-2.1-21.1,,<div class = centerbox><div class = fixation>+</div></div>,,practice_fixation,500.0,,practice,1.0,500.0,,,,,,,,,,,,,,,
51,,html-keyboard-response,51,38686,0.0-2.1-22.1,,<div class = bigbox><div class = quad_box><div class = decision-top-right></div></div></div>,,practice_cue,150.0,,practice,1.0,150.0,,,,,,,,,,,,,,,
52,,html-keyboard-response,52,40192,0.0-2.1-23.1,627.0,<div class = bigbox><div class = quad_box><div class = decision-top-right><div class = gng_number><div class = cue-text><img class = center src='/static/experiments/spatial_task_switching_rdoc/images/1.png'></img></div></div></div></div></div>,.,practice_trial,1500.0,,practice,1.0,1000.0,"[',', '.']",tswitch_cswitch,1.0,.,2.0,low,odd,5.0,1.0,1,,,,,
53,,html-keyboard-response,53,40696,0.0-2.1-24.1,,<div class = fb_box><div class = center-text><font size =20>Correct!</font></div></div>,,practice_feedback,500.0,,practice,,500.0,,,,,,,,,,,,,,,
54,,html-keyboard-response,54,42983,0.0-2.1-25.1,,<div class = centerbox><div class = fixation>+</div></div>,,practice_ITI,2280.1253282945136,,practice,1.0,2280.1253282945136,,,,,,,,,,,"{'min': 0, 'max': 5, 'mean': 0.5}",,,,
55,,html-keyboard-response,55,44847,0.0-3.0-0.0,1863.0,"<div class = bigbox><div class = picture_box><p class = block-text>
    
      <div class=""centerbox"">
        <p class=""block-text"">We will now start the test portion.</p>
        <p class=""block-text"">Keep your <b>index finger</b> on the <b>comma key (,)</b> and your <b>middle finger</b> on the <b>period key (.)</b></p>
        <p class=""block-text"">Press <i>enter</i> to continue.</p>
      </div>
      
    </font></p></div></div>",enter,test_feedback,60000.0,,test,0.0,,,,,,,,,,,,,,,,
56,,html-keyboard-response,56,45956,0.0-3.0-1.0-0.0,1108.0,,l,test_attention_check,,,test,0.0,,,,,,,,,,,False,,<p class='block-text'>Press the key for the third letter of the English alphabet.</p> <div class=block-text>This screen will advance automatically in 1 minute.</div>,67.0,,
57,,html-keyboard-response,57,46460,0.0-3.0-2.0,,<div class = centerbox><div class = fixation>+</div></div>,,test_fixation,500.0,,test,2.0,500.0,,,,,,,,,,,,,,,
58,,html-keyboard-response,58,46617,0.0-3.0-3.0,,<div class = bigbox><div class = quad_box><div class = decision-bottom-right></div></div></div>,,test_cue,150.0,,test,2.0,150.0,,,,,,,,,,,,,,,
59,,html-keyboard-response,59,48123,0.0-3.0-4.0,848.0,<div class = bigbox><div class = quad_box><div class = decision-bottom-right><div class = gng_number><div class = cue-text><img class = center src='/static/experiments/spatial_task_switching_rdoc/images/8.png'></img></div></div></div></div></div>,.,test_trial,1500.0,,test,0.0,1000.0,"[',', '.']",na,8.0,",",3.0,high,even,1.0,0.0,0,,,,,
60,,html-keyboard-response,60,48126,0.0-3.0-5.0,,<div class = centerbox><div class = fixation>+</div></div>,,test_ITI,1.0631191279964052,,test,0.0,1.0631191279964052,,,,,,,,,,,"{'min': 0, 'max': 5, 'mean': 0.5}",,,,
61,,html-keyboard-response,61,48632,0.0-3.0-6.0,,<div class = centerbox><div class = fixation>+</div></div>,,test_fixation,500.0,,test,2.0,500.0,,,,,,,,,,,,,,,
62,,html-keyboard-response,62,48788,0.0-3.0-7.0,,<div class = bigbox><div class = quad_box><div class = decision-bottom-left></div></div></div>,,test_cue,150.0,,test,2.0,150.0,,,,,,,,,,,,,,,
63,,html-keyboard-response,63,50295,0.0-3.0-8.0,686.0,<div class = bigbox><div class = quad_box><div class = decision-bottom-left><div class = gng_number><div class = cue-text><img class = center src='/static/experiments/spatial_task_switching_rdoc/images/9.png'></img></div></div></div></div></div>,.,test_trial,1500.0,,test,0.0,1000.0,"[',', '.']",tstay_cswitch,9.0,.,4.0,high,odd,2.0,0.0,1,,,,,
64,,html-keyboard-response,64,50358,0.0-3.0-9.0,,<div class = centerbox><div class = fixation>+</div></div>,,test_ITI,61.14310359298497,,test,0.0,61.14310359298497,,,,,,,,,,,"{'min': 0, 'max': 5, 'mean': 0.5}",,,,
65,,html-keyboard-response,65,50861,0.0-3.0-10.0,,<div class = centerbox><div class = fixation>+</div></div>,,test_fixation,500.0,,test,2.0,500.0,,,,,,,,,,,,,,,
66,,html-keyboard-response,66,51017,0.0-3.0-11.0,,<div class = bigbox><div class = quad_box><div class = decision-bottom-left></div></div></div>,,test_cue,150.0,,test,2.0,150.0,,,,,,,,,,,,,,,
67,,html-keyboard-response,67,52519,0.0-3.0-12.0,,<div class = bigbox><div class = quad_box><div class = decision-bottom-left><div class = gng_number><div class = cue-text><img class = center src='/static/experiments/spatial_task_switching_rdoc/images/6.png'></img></div></div></div></div></div>,,test_trial,1500.0,,test,0.0,1000.0,"[',', '.']",tstay_cstay,6.0,",",4.0,high,even,3.0,0.0,0,,,,,
68,,html-keyboard-response,68,53381,0.0-3.0-13.0,,<div class = centerbox><div class = fixation>+</div></div>,,test_ITI,856.5876727725883,,test,0.0,856.5876727725883,,,,,,,,,,,"{'min': 0, 'max': 5, 'mean': 0.5}",,,,
69,,html-keyboard-response,69,53888,0.0-3.0-14.0,,<div class = centerbox><div class = fixation>+</div></div>,,test_fixation,500.0,,test,2.0,500.0,,,,,,,,,,,,,,,
70,,html-keyboard-response,70,54044,0.0-3.0-15.0,,<div class = bigbox><div class = quad_box><div class = decision-bottom-right></div></div></div>,,test_cue,150.0,,test,2.0,150.0,,,,,,,,,,,,,,,
71,,html-keyboard-response,71,55549,0.0-3.0-16.0,,<div class = bigbox><div class = quad_box><div class = decision-bottom-right><div class = gng_number><div class = cue-text><img class = center src='/static/experiments/spatial_task_switching_rdoc/images/7.png'></img></div></div></div></div></div>,,test_trial,1500.0,,test,0.0,1000.0,"[',', '.']",tstay_cswitch,7.0,.,3.0,high,odd,4.0,0.0,0,,,,,
72,,html-keyboard-response,72,55765,0.0-3.0-17.0,,<div class = centerbox><div class = fixation>+</div></div>,,test_ITI,209.56074799244567,,test,0.0,209.56074799244567,,,,,,,,,,,"{'min': 0, 'max': 5, 'mean': 0.5}",,,,
73,,html-keyboard-response,73,56270,0.0-3.0-18.0,,<div class = centerbox><div class = fixation>+</div></div>,,test_fixation,500.0,,test,2.0,500.0,,,,,,,,,,,,,,,
74,,html-keyboard-response,74,56427,0.0-3.0-19.0,,<div class = bigbox><div class = quad_box><div class = decision-bottom-right></div></div></div>,,test_cue,150.0,,test,2.0,150.0,,,,,,,,,,,,,,,
75,,html-keyboard-response,75,57934,0.0-3.0-20.0,,<div class = bigbox><div class = quad_box><div class = decision-bottom-right><div class = gng_number><div class = cue-text><img class = center src='/static/experiments/spatial_task_switching_rdoc/images/9.png'></img></div></div></div></div></div>,,test_trial,1500.0,,test,0.0,1000.0,"[',', '.']",tstay_cstay,9.0,.,3.0,high,odd,5.0,0.0,0,,,,,
76,,html-keyboard-response,76,57975,0.0-3.0-21.0,,<div class = centerbox><div class = fixation>+</div></div>,,test_ITI,38.719930484532945,,test,0.0,38.719930484532945,,,,,,,,,,,"{'min': 0, 'max': 5, 'mean': 0.5}",,,,
77,,html-keyboard-response,77,58480,0.0-3.0-22.0,,<div class = centerbox><div class = fixation>+</div></div>,,test_fixation,500.0,,test,2.0,500.0,,,,,,,,,,,,,,,
78,,html-keyboard-response,78,58636,0.0-3.0-23.0,,<div class = bigbox><div class = quad_box><div class = decision-bottom-left></div></div></div>,,test_cue,150.0,,test,2.0,150.0,,,,,,,,,,,,,,,
79,,html-keyboard-response,79,60139,0.0-3.0-24.0,874.0,<div class = bigbox><div class = quad_box><div class = decision-bottom-left><div class = gng_number><div class = cue-text><img class = center src='/static/experiments/spatial_task_switching_rdoc/images/6.png'></img></div></div></div></div></div>,",",test_trial,1500.0,,test,0.0,1000.0,"[',', '.']",tstay_cswitch,6.0,",",4.0,high,even,6.0,0.0,1,,,,,
80,,html-keyboard-response,80,61322,0.0-3.0-25.0,,<div class = centerbox><div class = fixation>+</div></div>,,test_ITI,1176.4716082757882,,test,0.0,1176.4716082757882,,,,,,,,,,,"{'min': 0, 'max': 5, 'mean': 0.5}",,,,
81,,html-keyboard-response,81,61824,0.0-3.0-26.0,,<div class = centerbox><div class = fixation>+</div></div>,,test_fixation,500.0,,test,2.0,500.0,,,,,,,,,,,,,,,
82,,html-keyboard-response,82,61981,0.0-3.0-27.0,,<div class = bigbox><div class = quad_box><div class = decision-bottom-left></div></div></div>,,test_cue,150.0,,test,2.0,150.0,,,,,,,,,,,,,,,
83,,html-keyboard-response,83,64186,0.0-3.0-28.0,,<div class = bigbox><div class = quad_box><div class = decision-bottom-left><div class = gng_number><div class = cue-text><img class = center src='/static/experiments/spatial_task_switching_rdoc/images/8.png'></img></div></div></div></div></div>,,test_trial,1500.0,,test,0.0,1000.0,"[',', '.']",tstay_cstay,8.0,",",4.0,high,even,7.0,0.0,0,,,,,
84,,html-keyboard-response,84,65186,0.0-3.0-29.0,,<div class = centerbox><div class = fixation>+</div></div>,,test_ITI,778.6333742710486,,test,0.0,778.6333742710486,,,,,,,,,,,"{'min': 0, 'max': 5, 'mean': 0.5}",,,,
85,,html-keyboard-response,85,66182,0.0-3.0-30.0,,<div class = centerbox><div class = fixation>+</div></div>,,test_fixation,500.0,,test,2.0,500.0,,,,,,,,,,,,,,,
86,,html-keyboard-response,86,66571,0.0-3.0-31.0,,<div class = bigbox><div class = quad_box><div class = decision-bottom-left></div></div></div>,,test_cue,150.0,,test,2.0,150.0,,,,,,,,,,,,,,,
87,,html-keyboard-response,87,68077,0.0-3.0-32.0,,<div class = bigbox><div class = quad_box><div class = decision-bottom-left><div class = gng_number><div class = cue-text><img class = center src='/static/experiments/spatial_task_switching_rdoc/images/3.png'></img></div></div></div></div></div>,,test_trial,1500.0,,test,0.0,1000.0,"[',', '.']",tstay_cstay,3.0,.,4.0,low,odd,8.0,0.0,0,,,,,
88,,html-keyboard-response,88,69186,0.0-3.0-33.0,,<div class = centerbox><div class = fixation>+</div></div>,,test_ITI,404.4811494609586,,test,0.0,404.4811494609586,,,,,,,,,,,"{'min': 0, 'max': 5, 'mean': 0.5}",,,,
89,,html-keyboard-response,89,70186,0.0-3.0-34.0,,<div class = centerbox><div class = fixation>+</div></div>,,test_fixation,500.0,,test,2.0,500.0,,,,,,,,,,,,,,,
90,,html-keyboard-response,90,71186,0.0-3.0-35.0,,<div class = bigbox><div class = quad_box><div class = decision-top-left></div></div></div>,,test_cue,150.0,,test,2.0,150.0,,,,,,,,,,,,,,,
91,,html-keyboard-response,91,73183,0.0-3.0-36.0,,<div class = bigbox><div class = quad_box><div class = decision-top-left><div class = gng_number><div class = cue-text><img class = center src='/static/experiments/spatial_task_switching_rdoc/images/8.png'></img></div></div></div></div></div>,,test_trial,1500.0,,test,0.0,1000.0,"[',', '.']",tswitch_cswitch,8.0,",",1.0,high,even,9.0,0.0,0,,,,,
92,,html-keyboard-response,92,74183,0.0-3.0-37.0,,<div class = centerbox><div class = fixation>+</div></div>,,test_ITI,200.51405777309026,,test,0.0,200.51405777309026,,,,,,,,,,,"{'min': 0, 'max': 5, 'mean': 0.5}",,,,
93,,html-keyboard-response,93,75183,0.0-3.0-38.0,,<div class = centerbox><div class = fixation>+</div></div>,,test_fixation,500.0,,test,2.0,500.0,,,,,,,,,,,,,,,
94,,html-keyboard-response,94,76185,0.0-3.0-39.0,,<div class = bigbox><div class = quad_box><div class = decision-bottom-right></div></div></div>,,test_cue,150.0,,test,2.0,150.0,,,,,,,,,,,,,,,
95,,html-keyboard-response,95,78186,0.0-3.0-40.0,,<div class = bigbox><div class = quad_box><div class = decision-bottom-right><div class = gng_number><div class = cue-text><img class = center src='/static/experiments/spatial_task_switching_rdoc/images/7.png'></img></div></div></div></div></div>,,test_trial,1500.0,,test,0.0,1000.0,"[',', '.']",tswitch_cswitch,7.0,.,3.0,high,odd,10.0,0.0,0,,,,,
96,,html-keyboard-response,96,79185,0.0-3.0-41.0,,<div class = centerbox><div class = fixation>+</div></div>,,test_ITI,415.97978946864157,,test,0.0,415.97978946864157,,,,,,,,,,,"{'min': 0, 'max': 5, 'mean': 0.5}",,,,
97,,html-keyboard-response,97,80186,0.0-3.0-42.0,,<div class = centerbox><div class = fixation>+</div></div>,,test_fixation,500.0,,test,2.0,500.0,,,,,,,,,,,,,,,
98,,html-keyboard-response,98,81186,0.0-3.0-43.0,,<div class = bigbox><div class = quad_box><div class = decision-top-right></div></div></div>,,test_cue,150.0,,test,2.0,150.0,,,,,,,,,,,,,,,
99,,html-keyboard-response,99,83185,0.0-3.0-44.0,,<div class = bigbox><div class = quad_box><div class = decision-top-right><div class = gng_number><div class = cue-text><img class = center src='/static/experiments/spatial_task_switching_rdoc/images/1.png'></img></div></div></div></div></div>,,test_trial,1500.0,,test,0.0,1000.0,"[',', '.']",tswitch_cswitch,1.0,.,2.0,low,odd,11.0,0.0,0,,,,,
100,,html-keyboard-response,100,84186,0.0-3.0-45.0,,<div class = centerbox><div class = fixation>+</div></div>,,test_ITI,395.1415168408514,,test,0.0,395.1415168408514,,,,,,,,,,,"{'min': 0, 'max': 5, 'mean': 0.5}",,,,
101,,html-keyboard-response,101,85186,0.0-3.0-46.0,,<div class = centerbox><div class = fixation>+</div></div>,,test_fixation,500.0,,test,2.0,500.0,,,,,,,,,,,,,,,
102,,html-keyboard-response,102,86185,0.0-3.0-47.0,,<div class = bigbox><div class = quad_box><div class = decision-top-right></div></div></div>,,test_cue,150.0,,test,2.0,150.0,,,,,,,,,,,,,,,
103,,html-keyboard-response,103,88186,0.0-3.0-48.0,,<div class = bigbox><div class = quad_box><div class = decision-top-right><div class = gng_number><div class = cue-text><img class = center src='/static/experiments/spatial_task_switching_rdoc/images/4.png'></img></div></div></div></div></div>,,test_trial,1500.0,,test,0.0,1000.0,"[',', '.']",tstay_cstay,4.0,.,2.0,low,even,12.0,0.0,0,,,,,
104,,html-keyboard-response,104,89183,0.0-3.0-49.0,,<div class = centerbox><div class = fixation>+</div></div>,,test_ITI,185.54176180714393,,test,0.0,185.54176180714393,,,,,,,,,,,"{'min': 0, 'max': 5, 'mean': 0.5}",,,,
105,,html-keyboard-response,105,90186,0.0-3.0-50.0,,<div class = centerbox><div class = fixation>+</div></div>,,test_fixation,500.0,,test,2.0,500.0,,,,,,,,,,,,,,,
106,,html-keyboard-response,106,91182,0.0-3.0-51.0,,<div class = bigbox><div class = quad_box><div class = decision-bottom-right></div></div></div>,,test_cue,150.0,,test,2.0,150.0,,,,,,,,,,,,,,,
107,,html-keyboard-response,107,93183,0.0-3.0-52.0,,<div class = bigbox><div class = quad_box><div class = decision-bottom-right><div class = gng_number><div class = cue-text><img class = center src='/static/experiments/spatial_task_switching_rdoc/images/4.png'></img></div></div></div></div></div>,,test_trial,1500.0,,test,0.0,1000.0,"[',', '.']",tswitch_cswitch,4.0,",",3.0,low,even,13.0,0.0,0,,,,,
108,,html-keyboard-response,108,94186,0.0-3.0-53.0,,<div class = centerbox><div class = fixation>+</div></div>,,test_ITI,533.5217319883479,,test,0.0,533.5217319883479,,,,,,,,,,,"{'min': 0, 'max': 5, 'mean': 0.5}",,,,
109,,html-keyboard-response,109,95186,0.0-3.0-54.0,,<div class = centerbox><div class = fixation>+</div></div>,,test_fixation,500.0,,test,2.0,500.0,,,,,,,,,,,,,,,
110,,html-keyboard-response,110,96186,0.0-3.0-55.0,,<div class = bigbox><div class = quad_box><div class = decision-top-right></div></div></div>,,test_cue,150.0,,test,2.0,150.0,,,,,,,,,,,,,,,
111,,html-keyboard-response,111,98186,0.0-3.0-56.0,,<div class = bigbox><div class = quad_box><div class = decision-top-right><div class = gng_number><div class = cue-text><img class = center src='/static/experiments/spatial_task_switching_rdoc/images/4.png'></img></div></div></div></div></div>,,test_trial,1500.0,,test,0.0,1000.0,"[',', '.']",tswitch_cswitch,4.0,.,2.0,low,even,14.0,0.0,0,,,,,
112,,html-keyboard-response,112,99183,0.0-3.0-57.0,,<div class = centerbox><div class = fixation>+</div></div>,,test_ITI,475.44025391766223,,test,0.0,475.44025391766223,,,,,,,,,,,"{'min': 0, 'max': 5, 'mean': 0.5}",,,,
113,,html-keyboard-response,113,100182,0.0-3.0-58.0,,<div class = centerbox><div class = fixation>+</div></div>,,test_fixation,500.0,,test,2.0,500.0,,,,,,,,,,,,,,,
114,,html-keyboard-response,114,101185,0.0-3.0-59.0,,<div class = bigbox><div class = quad_box><div class = decision-bottom-left></div></div></div>,,test_cue,150.0,,test,2.0,150.0,,,,,,,,,,,,,,,
115,,html-keyboard-response,115,103185,0.0-3.0-60.0,,<div class = bigbox><div class = quad_box><div class = decision-bottom-left><div class = gng_number><div class = cue-text><img class = center src='/static/experiments/spatial_task_switching_rdoc/images/2.png'></img></div></div></div></div></div>,,test_trial,1500.0,,test,0.0,1000.0,"[',', '.']",tswitch_cswitch,2.0,",",4.0,low,even,15.0,0.0,0,,,,,
116,,html-keyboard-response,116,104186,0.0-3.0-61.0,,<div class = centerbox><div class = fixation>+</div></div>,,test_ITI,109.19091553464024,,test,0.0,109.19091553464024,,,,,,,,,,,"{'min': 0, 'max': 5, 'mean': 0.5}",,,,
117,,html-keyboard-response,117,105183,0.0-3.0-62.0,,<div class = centerbox><div class = fixation>+</div></div>,,test_fixation,500.0,,test,2.0,500.0,,,,,,,,,,,,,,,
118,,html-keyboard-response,118,106185,0.0-3.0-63.0,,<div class = bigbox><div class = quad_box><div class = decision-top-right></div></div></div>,,test_cue,150.0,,test,2.0,150.0,,,,,,,,,,,,,,,
119,,html-keyboard-response,119,108183,0.0-3.0-64.0,,<div class = bigbox><div class = quad_box><div class = decision-top-right><div class = gng_number><div class = cue-text><img class = center src='/static/experiments/spatial_task_switching_rdoc/images/9.png'></img></div></div></div></div></div>,,test_trial,1500.0,,test,0.0,1000.0,"[',', '.']",tswitch_cswitch,9.0,",",2.0,high,odd,16.0,0.0,0,,,,,
120,,html-keyboard-response,120,109183,0.0-3.0-65.0,,<div class = centerbox><div class = fixation>+</div></div>,,test_ITI,319.94238614524636,,test,0.0,319.94238614524636,,,,,,,,,,,"{'min': 0, 'max': 5, 'mean': 0.5}",,,,
121,,html-keyboard-response,121,110186,0.0-3.0-66.0,,<div class = centerbox><div class = fixation>+</div></div>,,test_fixation,500.0,,test,2.0,500.0,,,,,,,,,,,,,,,
122,,html-keyboard-response,122,111181,0.0-3.0-67.0,,<div class = bigbox><div class = quad_box><div class = decision-bottom-left></div></div></div>,,test_cue,150.0,,test,2.0,150.0,,,,,,,,,,,,,,,
123,,html-keyboard-response,123,113186,0.0-3.0-68.0,,<div class = bigbox><div class = quad_box><div class = decision-bottom-left><div class = gng_number><div class = cue-text><img class = center src='/static/experiments/spatial_task_switching_rdoc/images/3.png'></img></div></div></div></div></div>,,test_trial,1500.0,,test,0.0,1000.0,"[',', '.']",tswitch_cswitch,3.0,.,4.0,low,odd,17.0,0.0,0,,,,,
124,,html-keyboard-response,124,114183,0.0-3.0-69.0,,<div class = centerbox><div class = fixation>+</div></div>,,test_ITI,337.17534694842163,,test,0.0,337.17534694842163,,,,,,,,,,,"{'min': 0, 'max': 5, 'mean': 0.5}",,,,
125,,html-keyboard-response,125,115184,0.0-3.0-70.0,,<div class = centerbox><div class = fixation>+</div></div>,,test_fixation,500.0,,test,2.0,500.0,,,,,,,,,,,,,,,
126,,html-keyboard-response,126,116185,0.0-3.0-71.0,,<div class = bigbox><div class = quad_box><div class = decision-top-right></div></div></div>,,test_cue,150.0,,test,2.0,150.0,,,,,,,,,,,,,,,
127,,html-keyboard-response,127,118186,0.0-3.0-72.0,,<div class = bigbox><div class = quad_box><div class = decision-top-right><div class = gng_number><div class = cue-text><img class = center src='/static/experiments/spatial_task_switching_rdoc/images/1.png'></img></div></div></div></div></div>,,test_trial,1500.0,,test,0.0,1000.0,"[',', '.']",tswitch_cswitch,1.0,.,2.0,low,odd,18.0,0.0,0,,,,,
128,,html-keyboard-response,128,119183,0.0-3.0-73.0,,<div class = centerbox><div class = fixation>+</div></div>,,test_ITI,322.7125884198783,,test,0.0,322.7125884198783,,,,,,,,,,,"{'min': 0, 'max': 5, 'mean': 0.5}",,,,
129,,html-keyboard-response,129,120183,0.0-3.0-74.0,,<div class = centerbox><div class = fixation>+</div></div>,,test_fixation,500.0,,test,2.0,500.0,,,,,,,,,,,,,,,
130,,html-keyboard-response,130,121181,0.0-3.0-75.0,,<div class = bigbox><div class = quad_box><div class = decision-top-left></div></div></div>,,test_cue,150.0,,test,2.0,150.0,,,,,,,,,,,,,,,
131,,html-keyboard-response,131,123183,0.0-3.0-76.0,,<div class = bigbox><div class = quad_box><div class = decision-top-left><div class = gng_number><div class = cue-text><img class = center src='/static/experiments/spatial_task_switching_rdoc/images/9.png'></img></div></div></div></div></div>,,test_trial,1500.0,,test,0.0,1000.0,"[',', '.']",tstay_cswitch,9.0,",",1.0,high,odd,19.0,0.0,0,,,,,
132,,html-keyboard-response,132,124185,0.0-3.0-77.0,,<div class = centerbox><div class = fixation>+</div></div>,,test_ITI,446.2777038182569,,test,0.0,446.2777038182569,,,,,,,,,,,"{'min': 0, 'max': 5, 'mean': 0.5}",,,,
133,,html-keyboard-response,133,125186,0.0-3.0-78.0,,<div class = centerbox><div class = fixation>+</div></div>,,test_fixation,500.0,,test,2.0,500.0,,,,,,,,,,,,,,,
134,,html-keyboard-response,134,126186,0.0-3.0-79.0,,<div class = bigbox><div class = quad_box><div class = decision-top-right></div></div></div>,,test_cue,150.0,,test,2.0,150.0,,,,,,,,,,,,,,,
135,,html-keyboard-response,135,128185,0.0-3.0-80.0,,<div class = bigbox><div class = quad_box><div class = decision-top-right><div class = gng_number><div class = cue-text><img class = center src='/static/experiments/spatial_task_switching_rdoc/images/6.png'></img></div></div></div></div></div>,,test_trial,1500.0,,test,0.0,1000.0,"[',', '.']",tstay_cswitch,6.0,",",2.0,high,even,20.0,0.0,0,,,,,
136,,html-keyboard-response,136,164183,0.0-3.0-81.0,,<div class = centerbox><div class = fixation>+</div></div>,,test_ITI,1065.2240153964758,,test,0.0,1065.2240153964758,,,,,,,,,,,"{'min': 0, 'max': 5, 'mean': 0.5}",,,,
137,,html-keyboard-response,137,224183,0.0-3.0-82.0,,<div class = centerbox><div class = fixation>+</div></div>,,test_fixation,500.0,,test,2.0,500.0,,,,,,,,,,,,,,,
138,,html-keyboard-response,138,284187,0.0-3.0-83.0,,<div class = bigbox><div class = quad_box><div class = decision-top-right></div></div></div>,,test_cue,150.0,,test,2.0,150.0,,,,,,,,,,,,,,,
139,,html-keyboard-response,139,335282,0.0-3.0-84.0,,<div class = bigbox><div class = quad_box><div class = decision-top-right><div class = gng_number><div class = cue-text><img class = center src='/static/experiments/spatial_task_switching_rdoc/images/7.png'></img></div></div></div></div></div>,,test_trial,1500.0,,test,0.0,1000.0,"[',', '.']",tstay_cstay,7.0,",",2.0,high,odd,21.0,0.0,0,,,,,
140,,html-keyboard-response,140,335734,0.0-3.0-85.0,,<div class = centerbox><div class = fixation>+</div></div>,,test_ITI,446.74099623489235,,test,0.0,446.74099623489235,,,,,,,,,,,"{'min': 0, 'max': 5, 'mean': 0.5}",,,,
141,,html-keyboard-response,141,336240,0.0-3.0-86.0,,<div class = centerbox><div class = fixation>+</div></div>,,test_fixation,500.0,,test,2.0,500.0,,,,,,,,,,,,,,,
142,,html-keyboard-response,142,336396,0.0-3.0-87.0,,<div class = bigbox><div class = quad_box><div class = decision-top-right></div></div></div>,,test_cue,150.0,,test,2.0,150.0,,,,,,,,,,,,,,,
143,,html-keyboard-response,143,338182,0.0-3.0-88.0,,<div class = bigbox><div class = quad_box><div class = decision-top-right><div class = gng_number><div class = cue-text><img class = center src='/static/experiments/spatial_task_switching_rdoc/images/4.png'></img></div></div></div></div></div>,,test_trial,1500.0,,test,0.0,1000.0,"[',', '.']",tstay_cstay,4.0,.,2.0,low,even,22.0,0.0,0,,,,,
144,,html-keyboard-response,144,339183,0.0-3.0-89.0,,<div class = centerbox><div class = fixation>+</div></div>,,test_ITI,12.262750594341677,,test,0.0,12.262750594341677,,,,,,,,,,,"{'min': 0, 'max': 5, 'mean': 0.5}",,,,
145,,html-keyboard-response,145,340183,0.0-3.0-90.0,,<div class = centerbox><div class = fixation>+</div></div>,,test_fixation,500.0,,test,2.0,500.0,,,,,,,,,,,,,,,
146,,html-keyboard-response,146,341185,0.0-3.0-91.0,,<div class = bigbox><div class = quad_box><div class = decision-top-right></div></div></div>,,test_cue,150.0,,test,2.0,150.0,,,,,,,,,,,,,,,
147,,html-keyboard-response,147,343184,0.0-3.0-92.0,,<div class = bigbox><div class = quad_box><div class = decision-top-right><div class = gng_number><div class = cue-text><img class = center src='/static/experiments/spatial_task_switching_rdoc/images/2.png'></img></div></div></div></div></div>,,test_trial,1500.0,,test,0.0,1000.0,"[',', '.']",tstay_cstay,2.0,.,2.0,low,even,23.0,0.0,0,,,,,
148,,html-keyboard-response,148,344185,0.0-3.0-93.0,,<div class = centerbox><div class = fixation>+</div></div>,,test_ITI,746.6085091325426,,test,0.0,746.6085091325426,,,,,,,,,,,"{'min': 0, 'max': 5, 'mean': 0.5}",,,,
149,,html-keyboard-response,149,345182,0.0-3.0-94.0,,<div class = centerbox><div class = fixation>+</div></div>,,test_fixation,500.0,,test,2.0,500.0,,,,,,,,,,,,,,,
150,,html-keyboard-response,150,346185,0.0-3.0-95.0,,<div class = bigbox><div class = quad_box><div class = decision-bottom-right></div></div></div>,,test_cue,150.0,,test,2.0,150.0,,,,,,,,,,,,,,,
151,,html-keyboard-response,151,348185,0.0-3.0-96.0,,<div class = bigbox><div class = quad_box><div class = decision-bottom-right><div class = gng_number><div class = cue-text><img class = center src='/static/experiments/spatial_task_switching_rdoc/images/9.png'></img></div></div></div></div></div>,,test_trial,1500.0,,test,0.0,1000.0,"[',', '.']",tswitch_cswitch,9.0,.,3.0,high,odd,24.0,0.0,0,,,,,
152,,html-keyboard-response,152,349181,0.0-3.0-97.0,,<div class = centerbox><div class = fixation>+</div></div>,,test_ITI,67.96364260417516,,test,0.0,67.96364260417516,,,,,,,,,,,"{'min': 0, 'max': 5, 'mean': 0.5}",,,,
153,,html-keyboard-response,153,350183,0.0-3.0-98.0,,<div class = centerbox><div class = fixation>+</div></div>,,test_fixation,500.0,,test,2.0,500.0,,,,,,,,,,,,,,,
154,,html-keyboard-response,154,351185,0.0-3.0-99.0,,<div class = bigbox><div class = quad_box><div class = decision-bottom-left></div></div></div>,,test_cue,150.0,,test,2.0,150.0,,,,,,,,,,,,,,,
155,,html-keyboard-response,155,353185,0.0-3.0-100.0,,<div class = bigbox><div class = quad_box><div class = decision-bottom-left><div class = gng_number><div class = cue-text><img class = center src='/static/experiments/spatial_task_switching_rdoc/images/3.png'></img></div></div></div></div></div>,,test_trial,1500.0,,test,0.0,1000.0,"[',', '.']",tstay_cswitch,3.0,.,4.0,low,odd,25.0,0.0,0,,,,,
156,,html-keyboard-response,156,354185,0.0-3.0-101.0,,<div class = centerbox><div class = fixation>+</div></div>,,test_ITI,310.2275897526629,,test,0.0,310.2275897526629,,,,,,,,,,,"{'min': 0, 'max': 5, 'mean': 0.5}",,,,
157,,html-keyboard-response,157,355181,0.0-3.0-102.0,,<div class = centerbox><div class = fixation>+</div></div>,,test_fixation,500.0,,test,2.0,500.0,,,,,,,,,,,,,,,
158,,html-keyboard-response,158,356185,0.0-3.0-103.0,,<div class = bigbox><div class = quad_box><div class = decision-bottom-right></div></div></div>,,test_cue,150.0,,test,2.0,150.0,,,,,,,,,,,,,,,
159,,html-keyboard-response,159,358185,0.0-3.0-104.0,,<div class = bigbox><div class = quad_box><div class = decision-bottom-right><div class = gng_number><div class = cue-text><img class = center src='/static/experiments/spatial_task_switching_rdoc/images/8.png'></img></div></div></div></div></div>,,test_trial,1500.0,,test,0.0,1000.0,"[',', '.']",tstay_cswitch,8.0,",",3.0,high,even,26.0,0.0,0,,,,,
160,,html-keyboard-response,160,359185,0.0-3.0-105.0,,<div class = centerbox><div class = fixation>+</div></div>,,test_ITI,415.38388507929204,,test,0.0,415.38388507929204,,,,,,,,,,,"{'min': 0, 'max': 5, 'mean': 0.5}",,,,
161,,html-keyboard-response,161,360185,0.0-3.0-106.0,,<div class = centerbox><div class = fixation>+</div></div>,,test_fixation,500.0,,test,2.0,500.0,,,,,,,,,,,,,,,
162,,html-keyboard-response,162,361185,0.0-3.0-107.0,,<div class = bigbox><div class = quad_box><div class = decision-bottom-left></div></div></div>,,test_cue,150.0,,test,2.0,150.0,,,,,,,,,,,,,,,
163,,html-keyboard-response,163,363186,0.0-3.0-108.0,,<div class = bigbox><div class = quad_box><div class = decision-bottom-left><div class = gng_number><div class = cue-text><img class = center src='/static/experiments/spatial_task_switching_rdoc/images/4.png'></img></div></div></div></div></div>,,test_trial,1500.0,,test,0.0,1000.0,"[',', '.']",tstay_cswitch,4.0,",",4.0,low,even,27.0,0.0,0,,,,,
164,,html-keyboard-response,164,364185,0.0-3.0-109.0,,<div class = centerbox><div class = fixation>+</div></div>,,test_ITI,348.4937286813078,,test,0.0,348.4937286813078,,,,,,,,,,,"{'min': 0, 'max': 5, 'mean': 0.5}",,,,
165,,html-keyboard-response,165,365185,0.0-3.0-110.0,,<div class = centerbox><div class = fixation>+</div></div>,,test_fixation,500.0,,test,2.0,500.0,,,,,,,,,,,,,,,
166,,html-keyboard-response,166,366185,0.0-3.0-111.0,,<div class = bigbox><div class = quad_box><div class = decision-top-left></div></div></div>,,test_cue,150.0,,test,2.0,150.0,,,,,,,,,,,,,,,
167,,html-keyboard-response,167,368181,0.0-3.0-112.0,,<div class = bigbox><div class = quad_box><div class = decision-top-left><div class = gng_number><div class = cue-text><img class = center src='/static/experiments/spatial_task_switching_rdoc/images/7.png'></img></div></div></div></div></div>,,test_trial,1500.0,,test,0.0,1000.0,"[',', '.']",tswitch_cswitch,7.0,",",1.0,high,odd,28.0,0.0,0,,,,,
168,,html-keyboard-response,168,369185,0.0-3.0-113.0,,<div class = centerbox><div class = fixation>+</div></div>,,test_ITI,988.7752575830942,,test,0.0,988.7752575830942,,,,,,,,,,,"{'min': 0, 'max': 5, 'mean': 0.5}",,,,
169,,html-keyboard-response,169,370185,0.0-3.0-114.0,,<div class = centerbox><div class = fixation>+</div></div>,,test_fixation,500.0,,test,2.0,500.0,,,,,,,,,,,,,,,
170,,html-keyboard-response,170,371180,0.0-3.0-115.0,,<div class = bigbox><div class = quad_box><div class = decision-top-left></div></div></div>,,test_cue,150.0,,test,2.0,150.0,,,,,,,,,,,,,,,
171,,html-keyboard-response,171,373184,0.0-3.0-116.0,,<div class = bigbox><div class = quad_box><div class = decision-top-left><div class = gng_number><div class = cue-text><img class = center src='/static/experiments/spatial_task_switching_rdoc/images/1.png'></img></div></div></div></div></div>,,test_trial,1500.0,,test,0.0,1000.0,"[',', '.']",tstay_cstay,1.0,.,1.0,low,odd,29.0,0.0,0,,,,,
172,,html-keyboard-response,172,374185,0.0-3.0-117.0,,<div class = centerbox><div class = fixation>+</div></div>,,test_ITI,496.38066024037806,,test,0.0,496.38066024037806,,,,,,,,,,,"{'min': 0, 'max': 5, 'mean': 0.5}",,,,
173,,html-keyboard-response,173,375186,0.0-3.0-118.0,,<div class = centerbox><div class = fixation>+</div></div>,,test_fixation,500.0,,test,2.0,500.0,,,,,,,,,,,,,,,
174,,html-keyboard-response,174,376185,0.0-3.0-119.0,,<div class = bigbox><div class = quad_box><div class = decision-bottom-left></div></div></div>,,test_cue,150.0,,test,2.0,150.0,,,,,,,,,,,,,,,
175,,html-keyboard-response,175,378185,0.0-3.0-120.0,,<div class = bigbox><div class = quad_box><div class = decision-bottom-left><div class = gng_number><div class = cue-text><img class = center src='/static/experiments/spatial_task_switching_rdoc/images/6.png'></img></div></div></div></div></div>,,test_trial,1500.0,,test,0.0,1000.0,"[',', '.']",tswitch_cswitch,6.0,",",4.0,high,even,30.0,0.0,0,,,,,
176,,html-keyboard-response,176,379185,0.0-3.0-121.0,,<div class = centerbox><div class = fixation>+</div></div>,,test_ITI,229.75676047209387,,test,0.0,229.75676047209387,,,,,,,,,,,"{'min': 0, 'max': 5, 'mean': 0.5}",,,,
177,,html-keyboard-response,177,380186,0.0-3.0-122.0,,<div class = centerbox><div class = fixation>+</div></div>,,test_fixation,500.0,,test,2.0,500.0,,,,,,,,,,,,,,,
178,,html-keyboard-response,178,381181,0.0-3.0-123.0,,<div class = bigbox><div class = quad_box><div class = decision-top-left></div></div></div>,,test_cue,150.0,,test,2.0,150.0,,,,,,,,,,,,,,,
179,,html-keyboard-response,179,383185,0.0-3.0-124.0,,<div class = bigbox><div class = quad_box><div class = decision-top-left><div class = gng_number><div class = cue-text><img class = center src='/static/experiments/spatial_task_switching_rdoc/images/3.png'></img></div></div></div></div></div>,,test_trial,1500.0,,test,0.0,1000.0,"[',', '.']",tswitch_cswitch,3.0,.,1.0,low,odd,31.0,0.0,0,,,,,
180,,html-keyboard-response,180,384185,0.0-3.0-125.0,,<div class = centerbox><div class = fixation>+</div></div>,,test_ITI,163.59999317308444,,test,0.0,163.59999317308444,,,,,,,,,,,"{'min': 0, 'max': 5, 'mean': 0.5}",,,,
181,,html-keyboard-response,181,385182,0.0-3.0-126.0,,<div class = centerbox><div class = fixation>+</div></div>,,test_fixation,500.0,,test,2.0,500.0,,,,,,,,,,,,,,,
182,,html-keyboard-response,182,386182,0.0-3.0-127.0,,<div class = bigbox><div class = quad_box><div class = decision-top-left></div></div></div>,,test_cue,150.0,,test,2.0,150.0,,,,,,,,,,,,,,,
183,,html-keyboard-response,183,388181,0.0-3.0-128.0,,<div class = bigbox><div class = quad_box><div class = decision-top-left><div class = gng_number><div class = cue-text><img class = center src='/static/experiments/spatial_task_switching_rdoc/images/4.png'></img></div></div></div></div></div>,,test_trial,1500.0,,test,0.0,1000.0,"[',', '.']",tstay_cstay,4.0,.,1.0,low,even,32.0,0.0,0,,,,,
184,,html-keyboard-response,184,389186,0.0-3.0-129.0,,<div class = centerbox><div class = fixation>+</div></div>,,test_ITI,75.81831634220187,,test,0.0,75.81831634220187,,,,,,,,,,,"{'min': 0, 'max': 5, 'mean': 0.5}",,,,
185,,html-keyboard-response,185,390185,0.0-3.0-130.0,,<div class = centerbox><div class = fixation>+</div></div>,,test_fixation,500.0,,test,2.0,500.0,,,,,,,,,,,,,,,
186,,html-keyboard-response,186,391184,0.0-3.0-131.0,,<div class = bigbox><div class = quad_box><div class = decision-bottom-left></div></div></div>,,test_cue,150.0,,test,2.0,150.0,,,,,,,,,,,,,,,
187,,html-keyboard-response,187,393183,0.0-3.0-132.0,,<div class = bigbox><div class = quad_box><div class = decision-bottom-left><div class = gng_number><div class = cue-text><img class = center src='/static/experiments/spatial_task_switching_rdoc/images/7.png'></img></div></div></div></div></div>,,test_trial,1500.0,,test,0.0,1000.0,"[',', '.']",tswitch_cswitch,7.0,.,4.0,high,odd,33.0,0.0,0,,,,,
188,,html-keyboard-response,188,394181,0.0-3.0-133.0,,<div class = centerbox><div class = fixation>+</div></div>,,test_ITI,361.36633640368416,,test,0.0,361.36633640368416,,,,,,,,,,,"{'min': 0, 'max': 5, 'mean': 0.5}",,,,
189,,html-keyboard-response,189,395185,0.0-3.0-134.0,,<div class = centerbox><div class = fixation>+</div></div>,,test_fixation,500.0,,test,2.0,500.0,,,,,,,,,,,,,,,
190,,html-keyboard-response,190,396181,0.0-3.0-135.0,,<div class = bigbox><div class = quad_box><div class = decision-bottom-right></div></div></div>,,test_cue,150.0,,test,2.0,150.0,,,,,,,,,,,,,,,
191,,html-keyboard-response,191,404182,0.0-3.0-136.0,,<div class = bigbox><div class = quad_box><div class = decision-bottom-right><div class = gng_number><div class = cue-text><img class = center src='/static/experiments/spatial_task_switching_rdoc/images/6.png'></img></div></div></div></div></div>,,test_trial,1500.0,,test,0.0,1000.0,"[',', '.']",tstay_cswitch,6.0,",",3.0,high,even,34.0,0.0,0,,,,,
192,,html-keyboard-response,192,464185,0.0-3.0-137.0,,<div class = centerbox><div class = fixation>+</div></div>,,test_ITI,660.5684984298621,,test,0.0,660.5684984298621,,,,,,,,,,,"{'min': 0, 'max': 5, 'mean': 0.5}",,,,
193,,html-keyboard-response,193,524182,0.0-3.0-138.0,,<div class = centerbox><div class = fixation>+</div></div>,,test_fixation,500.0,,test,2.0,500.0,,,,,,,,,,,,,,,
194,,html-keyboard-response,194,584188,0.0-3.0-139.0,,<div class = bigbox><div class = quad_box><div class = decision-top-right></div></div></div>,,test_cue,150.0,,test,2.0,150.0,,,,,,,,,,,,,,,
195,,html-keyboard-response,195,644182,0.0-3.0-140.0,,<div class = bigbox><div class = quad_box><div class = decision-top-right><div class = gng_number><div class = cue-text><img class = center src='/static/experiments/spatial_task_switching_rdoc/images/7.png'></img></div></div></div></div></div>,,test_trial,1500.0,,test,0.0,1000.0,"[',', '.']",tswitch_cswitch,7.0,",",2.0,high,odd,35.0,0.0,0,,,,,
196,,html-keyboard-response,196,704185,0.0-3.0-141.0,,<div class = centerbox><div class = fixation>+</div></div>,,test_ITI,1222.993994912232,,test,0.0,1222.993994912232,,,,,,,,,,,"{'min': 0, 'max': 5, 'mean': 0.5}",,,,
197,,html-keyboard-response,197,764184,0.0-3.0-142.0,,<div class = centerbox><div class = fixation>+</div></div>,,test_fixation,500.0,,test,2.0,500.0,,,,,,,,,,,,,,,
198,,html-keyboard-response,198,824186,0.0-3.0-143.0,,<div class = bigbox><div class = quad_box><div class = decision-top-right></div></div></div>,,test_cue,150.0,,test,2.0,150.0,,,,,,,,,,,,,,,
199,,html-keyboard-response,199,884180,0.0-3.0-144.0,,<div class = bigbox><div class = quad_box><div class = decision-top-right><div class = gng_number><div class = cue-text><img class = center src='/static/experiments/spatial_task_switching_rdoc/images/3.png'></img></div></div></div></div></div>,,test_trial,1500.0,,test,0.0,1000.0,"[',', '.']",tstay_cstay,3.0,.,2.0,low,odd,36.0,0.0,0,,,,,
200,,html-keyboard-response,200,944185,0.0-3.0-145.0,,<div class = centerbox><div class = fixation>+</div></div>,,test_ITI,520.8324861248735,,test,0.0,520.8324861248735,,,,,,,,,,,"{'min': 0, 'max': 5, 'mean': 0.5}",,,,
201,,html-keyboard-response,201,1004183,0.0-3.0-146.0,,<div class = centerbox><div class = fixation>+</div></div>,,test_fixation,500.0,,test,2.0,500.0,,,,,,,,,,,,,,,
202,,html-keyboard-response,202,1064183,0.0-3.0-147.0,,<div class = bigbox><div class = quad_box><div class = decision-bottom-right></div></div></div>,,test_cue,150.0,,test,2.0,150.0,,,,,,,,,,,,,,,
203,,html-keyboard-response,203,1124185,0.0-3.0-148.0,,<div class = bigbox><div class = quad_box><div class = decision-bottom-right><div class = gng_number><div class = cue-text><img class = center src='/static/experiments/spatial_task_switching_rdoc/images/6.png'></img></div></div></div></div></div>,,test_trial,1500.0,,test,0.0,1000.0,"[',', '.']",tswitch_cswitch,6.0,",",3.0,high,even,37.0,0.0,0,,,,,
204,,html-keyboard-response,204,1171391,0.0-3.0-149.0,,<div class = centerbox><div class = fixation>+</div></div>,,test_ITI,1021.7433165722172,,test,0.0,1021.7433165722172,,,,,,,,,,,"{'min': 0, 'max': 5, 'mean': 0.5}",,,,
205,,html-keyboard-response,205,1171893,0.0-3.0-150.0,,<div class = centerbox><div class = fixation>+</div></div>,,test_fixation,500.0,,test,2.0,500.0,,,,,,,,,,,,,,,
206,,html-keyboard-response,206,1172049,0.0-3.0-151.0,,<div class = bigbox><div class = quad_box><div class = decision-top-left></div></div></div>,,test_cue,150.0,,test,2.0,150.0,,,,,,,,,,,,,,,
207,,html-keyboard-response,207,1173554,0.0-3.0-152.0,803.0,<div class = bigbox><div class = quad_box><div class = decision-top-left><div class = gng_number><div class = cue-text><img class = center src='/static/experiments/spatial_task_switching_rdoc/images/7.png'></img></div></div></div></div></div>,",",test_trial,1500.0,,test,0.0,1000.0,"[',', '.']",tswitch_cswitch,7.0,",",1.0,high,odd,38.0,0.0,1,,,,,
208,,html-keyboard-response,208,1173900,0.0-3.0-153.0,,<div class = centerbox><div class = fixation>+</div></div>,,test_ITI,342.8855407080386,,test,0.0,342.8855407080386,,,,,,,,,,,"{'min': 0, 'max': 5, 'mean': 0.5}",,,,
209,,html-keyboard-response,209,1174405,0.0-3.0-154.0,,<div class = centerbox><div class = fixation>+</div></div>,,test_fixation,500.0,,test,2.0,500.0,,,,,,,,,,,,,,,
210,,html-keyboard-response,210,1174561,0.0-3.0-155.0,,<div class = bigbox><div class = quad_box><div class = decision-bottom-left></div></div></div>,,test_cue,150.0,,test,2.0,150.0,,,,,,,,,,,,,,,
211,,html-keyboard-response,211,1176068,0.0-3.0-156.0,590.0,<div class = bigbox><div class = quad_box><div class = decision-bottom-left><div class = gng_number><div class = cue-text><img class = center src='/static/experiments/spatial_task_switching_rdoc/images/3.png'></img></div></div></div></div></div>,",",test_trial,1500.0,,test,0.0,1000.0,"[',', '.']",tswitch_cswitch,3.0,.,4.0,low,odd,39.0,0.0,0,,,,,
212,,html-keyboard-response,212,1177248,0.0-3.0-157.0,,<div class = centerbox><div class = fixation>+</div></div>,,test_ITI,1177.086680626273,,test,0.0,1177.086680626273,,,,,,,,,,,"{'min': 0, 'max': 5, 'mean': 0.5}",,,,
213,,html-keyboard-response,213,1177753,0.0-3.0-158.0,,<div class = centerbox><div class = fixation>+</div></div>,,test_fixation,500.0,,test,2.0,500.0,,,,,,,,,,,,,,,
214,,html-keyboard-response,214,1177910,0.0-3.0-159.0,,<div class = bigbox><div class = quad_box><div class = decision-bottom-left></div></div></div>,,test_cue,150.0,,test,2.0,150.0,,,,,,,,,,,,,,,
215,,html-keyboard-response,215,1179417,0.0-3.0-160.0,,<div class = bigbox><div class = quad_box><div class = decision-bottom-left><div class = gng_number><div class = cue-text><img class = center src='/static/experiments/spatial_task_switching_rdoc/images/2.png'></img></div></div></div></div></div>,,test_trial,1500.0,,test,0.0,1000.0,"[',', '.']",tstay_cstay,2.0,",",4.0,low,even,40.0,0.0,0,,,,,
216,,html-keyboard-response,216,1179450,0.0-3.0-161.0,,<div class = centerbox><div class = fixation>+</div></div>,,test_ITI,27.00554465836858,,test,0.0,27.00554465836858,,,,,,,,,,,"{'min': 0, 'max': 5, 'mean': 0.5}",,,,
217,,html-keyboard-response,217,1179954,0.0-3.0-162.0,,<div class = centerbox><div class = fixation>+</div></div>,,test_fixation,500.0,,test,2.0,500.0,,,,,,,,,,,,,,,
218,,html-keyboard-response,218,1180107,0.0-3.0-163.0,,<div class = bigbox><div class = quad_box><div class = decision-bottom-right></div></div></div>,,test_cue,150.0,,test,2.0,150.0,,,,,,,,,,,,,,,
219,,html-keyboard-response,219,1181611,0.0-3.0-164.0,,<div class = bigbox><div class = quad_box><div class = decision-bottom-right><div class = gng_number><div class = cue-text><img class = center src='/static/experiments/spatial_task_switching_rdoc/images/4.png'></img></div></div></div></div></div>,,test_trial,1500.0,,test,0.0,1000.0,"[',', '.']",tstay_cswitch,4.0,",",3.0,low,even,41.0,0.0,0,,,,,
220,,html-keyboard-response,220,1181906,0.0-3.0-165.0,,<div class = centerbox><div class = fixation>+</div></div>,,test_ITI,288.54914211290037,,test,0.0,288.54914211290037,,,,,,,,,,,"{'min': 0, 'max': 5, 'mean': 0.5}",,,,
221,,html-keyboard-response,221,1182409,0.0-3.0-166.0,,<div class = centerbox><div class = fixation>+</div></div>,,test_fixation,500.0,,test,2.0,500.0,,,,,,,,,,,,,,,
222,,html-keyboard-response,222,1182561,0.0-3.0-167.0,,<div class = bigbox><div class = quad_box><div class = decision-top-left></div></div></div>,,test_cue,150.0,,test,2.0,150.0,,,,,,,,,,,,,,,
223,,html-keyboard-response,223,1184067,0.0-3.0-168.0,,<div class = bigbox><div class = quad_box><div class = decision-top-left><div class = gng_number><div class = cue-text><img class = center src='/static/experiments/spatial_task_switching_rdoc/images/1.png'></img></div></div></div></div></div>,,test_trial,1500.0,,test,0.0,1000.0,"[',', '.']",tswitch_cswitch,1.0,.,1.0,low,odd,42.0,0.0,0,,,,,
224,,html-keyboard-response,224,1184900,0.0-3.0-169.0,,<div class = centerbox><div class = fixation>+</div></div>,,test_ITI,831.412671491947,,test,0.0,831.412671491947,,,,,,,,,,,"{'min': 0, 'max': 5, 'mean': 0.5}",,,,
225,,html-keyboard-response,225,1185402,0.0-3.0-170.0,,<div class = centerbox><div class = fixation>+</div></div>,,test_fixation,500.0,,test,2.0,500.0,,,,,,,,,,,,,,,
226,,html-keyboard-response,226,1185559,0.0-3.0-171.0,,<div class = bigbox><div class = quad_box><div class = decision-top-left></div></div></div>,,test_cue,150.0,,test,2.0,150.0,,,,,,,,,,,,,,,
227,,html-keyboard-response,227,1187064,0.0-3.0-172.0,,<div class = bigbox><div class = quad_box><div class = decision-top-left><div class = gng_number><div class = cue-text><img class = center src='/static/experiments/spatial_task_switching_rdoc/images/1.png'></img></div></div></div></div></div>,,test_trial,1500.0,,test,0.0,1000.0,"[',', '.']",tstay_cstay,1.0,.,1.0,low,odd,43.0,0.0,0,,,,,
228,,html-keyboard-response,228,1187140,0.0-3.0-173.0,,<div class = centerbox><div class = fixation>+</div></div>,,test_ITI,73.8176568947296,,test,0.0,73.8176568947296,,,,,,,,,,,"{'min': 0, 'max': 5, 'mean': 0.5}",,,,
229,,html-keyboard-response,229,1187646,0.0-3.0-174.0,,<div class = centerbox><div class = fixation>+</div></div>,,test_fixation,500.0,,test,2.0,500.0,,,,,,,,,,,,,,,
230,,html-keyboard-response,230,1187802,0.0-3.0-175.0,,<div class = bigbox><div class = quad_box><div class = decision-bottom-left></div></div></div>,,test_cue,150.0,,test,2.0,150.0,,,,,,,,,,,,,,,
231,,html-keyboard-response,231,1189308,0.0-3.0-176.0,,<div class = bigbox><div class = quad_box><div class = decision-bottom-left><div class = gng_number><div class = cue-text><img class = center src='/static/experiments/spatial_task_switching_rdoc/images/9.png'></img></div></div></div></div></div>,,test_trial,1500.0,,test,0.0,1000.0,"[',', '.']",tswitch_cswitch,9.0,.,4.0,high,odd,44.0,0.0,0,,,,,
232,,html-keyboard-response,232,1190478,0.0-3.0-177.0,,<div class = centerbox><div class = fixation>+</div></div>,,test_ITI,1165.5853429345486,,test,0.0,1165.5853429345486,,,,,,,,,,,"{'min': 0, 'max': 5, 'mean': 0.5}",,,,
233,,html-keyboard-response,233,1190982,0.0-3.0-178.0,,<div class = centerbox><div class = fixation>+</div></div>,,test_fixation,500.0,,test,2.0,500.0,,,,,,,,,,,,,,,
234,,html-keyboard-response,234,1191135,0.0-3.0-179.0,,<div class = bigbox><div class = quad_box><div class = decision-bottom-left></div></div></div>,,test_cue,150.0,,test,2.0,150.0,,,,,,,,,,,,,,,
235,,html-keyboard-response,235,1192642,0.0-3.0-180.0,819.0,<div class = bigbox><div class = quad_box><div class = decision-bottom-left><div class = gng_number><div class = cue-text><img class = center src='/static/experiments/spatial_task_switching_rdoc/images/6.png'></img></div></div></div></div></div>,.,test_trial,1500.0,,test,0.0,1000.0,"[',', '.']",tstay_cstay,6.0,",",4.0,high,even,45.0,0.0,0,,,,,
236,,html-keyboard-response,236,1193315,0.0-3.0-181.0,,<div class = centerbox><div class = fixation>+</div></div>,,test_ITI,666.5288728837852,,test,0.0,666.5288728837852,,,,,,,,,,,"{'min': 0, 'max': 5, 'mean': 0.5}",,,,
237,,html-keyboard-response,237,1193820,0.0-3.0-182.0,,<div class = centerbox><div class = fixation>+</div></div>,,test_fixation,500.0,,test,2.0,500.0,,,,,,,,,,,,,,,
238,,html-keyboard-response,238,1193977,0.0-3.0-183.0,,<div class = bigbox><div class = quad_box><div class = decision-top-left></div></div></div>,,test_cue,150.0,,test,2.0,150.0,,,,,,,,,,,,,,,
239,,html-keyboard-response,239,1195483,0.0-3.0-184.0,,<div class = bigbox><div class = quad_box><div class = decision-top-left><div class = gng_number><div class = cue-text><img class = center src='/static/experiments/spatial_task_switching_rdoc/images/7.png'></img></div></div></div></div></div>,,test_trial,1500.0,,test,0.0,1000.0,"[',', '.']",tswitch_cswitch,7.0,",",1.0,high,odd,46.0,0.0,0,,,,,
240,,html-keyboard-response,240,1195610,0.0-3.0-185.0,,<div class = centerbox><div class = fixation>+</div></div>,,test_ITI,122.03127296728886,,test,0.0,122.03127296728886,,,,,,,,,,,"{'min': 0, 'max': 5, 'mean': 0.5}",,,,
241,,html-keyboard-response,241,1196113,0.0-3.0-186.0,,<div class = centerbox><div class = fixation>+</div></div>,,test_fixation,500.0,,test,2.0,500.0,,,,,,,,,,,,,,,
242,,html-keyboard-response,242,1196270,0.0-3.0-187.0,,<div class = bigbox><div class = quad_box><div class = decision-bottom-left></div></div></div>,,test_cue,150.0,,test,2.0,150.0,,,,,,,,,,,,,,,
243,,html-keyboard-response,243,1197777,0.0-3.0-188.0,,<div class = bigbox><div class = quad_box><div class = decision-bottom-left><div class = gng_number><div class = cue-text><img class = center src='/static/experiments/spatial_task_switching_rdoc/images/7.png'></img></div></div></div></div></div>,,test_trial,1500.0,,test,0.0,1000.0,"[',', '.']",tswitch_cswitch,7.0,.,4.0,high,odd,47.0,0.0,0,,,,,
244,,html-keyboard-response,244,1197917,0.0-3.0-189.0,,<div class = centerbox><div class = fixation>+</div></div>,,test_ITI,133.03197038357345,,test,0.0,133.03197038357345,,,,,,,,,,,"{'min': 0, 'max': 5, 'mean': 0.5}",,,,
245,,html-keyboard-response,245,1198423,0.0-3.0-190.0,,<div class = centerbox><div class = fixation>+</div></div>,,test_fixation,500.0,,test,2.0,500.0,,,,,,,,,,,,,,,
246,,html-keyboard-response,246,1198577,0.0-3.0-191.0,,<div class = bigbox><div class = quad_box><div class = decision-top-left></div></div></div>,,test_cue,150.0,,test,2.0,150.0,,,,,,,,,,,,,,,
247,,html-keyboard-response,247,1200084,0.0-3.0-192.0,,<div class = bigbox><div class = quad_box><div class = decision-top-left><div class = gng_number><div class = cue-text><img class = center src='/static/experiments/spatial_task_switching_rdoc/images/7.png'></img></div></div></div></div></div>,,test_trial,1500.0,,test,0.0,1000.0,"[',', '.']",tswitch_cswitch,7.0,",",1.0,high,odd,48.0,0.0,0,,,,,
248,,html-keyboard-response,248,1200159,0.0-3.0-193.0,,<div class = centerbox><div class = fixation>+</div></div>,,test_ITI,70.49969556778775,,test,0.0,70.49969556778775,,,,,,,,,,,"{'min': 0, 'max': 5, 'mean': 0.5}",,,,
249,,html-keyboard-response,249,1200663,0.0-3.0-194.0,,<div class = centerbox><div class = fixation>+</div></div>,,test_fixation,500.0,,test,2.0,500.0,,,,,,,,,,,,,,,
250,,html-keyboard-response,250,1200816,0.0-3.0-195.0,,<div class = bigbox><div class = quad_box><div class = decision-top-left></div></div></div>,,test_cue,150.0,,test,2.0,150.0,,,,,,,,,,,,,,,
251,,html-keyboard-response,251,1202323,0.0-3.0-196.0,,<div class = bigbox><div class = quad_box><div class = decision-top-left><div class = gng_number><div class = cue-text><img class = center src='/static/experiments/spatial_task_switching_rdoc/images/6.png'></img></div></div></div></div></div>,,test_trial,1500.0,,test,0.0,1000.0,"[',', '.']",tstay_cstay,6.0,",",1.0,high,even,49.0,0.0,0,,,,,
252,,html-keyboard-response,252,1202415,0.0-3.0-197.0,,<div class = centerbox><div class = fixation>+</div></div>,,test_ITI,86.5768148276061,,test,0.0,86.5768148276061,,,,,,,,,,,"{'min': 0, 'max': 5, 'mean': 0.5}",,,,
253,,html-keyboard-response,253,1202918,0.0-3.0-198.0,,<div class = centerbox><div class = fixation>+</div></div>,,test_fixation,500.0,,test,2.0,500.0,,,,,,,,,,,,,,,
254,,html-keyboard-response,254,1203075,0.0-3.0-199.0,,<div class = bigbox><div class = quad_box><div class = decision-bottom-right></div></div></div>,,test_cue,150.0,,test,2.0,150.0,,,,,,,,,,,,,,,
255,,html-keyboard-response,255,1204581,0.0-3.0-200.0,,<div class = bigbox><div class = quad_box><div class = decision-bottom-right><div class = gng_number><div class = cue-text><img class = center src='/static/experiments/spatial_task_switching_rdoc/images/9.png'></img></div></div></div></div></div>,,test_trial,1500.0,,test,0.0,1000.0,"[',', '.']",tswitch_cswitch,9.0,.,3.0,high,odd,50.0,0.0,0,,,,,
256,,html-keyboard-response,256,1205262,0.0-3.0-201.0,,<div class = centerbox><div class = fixation>+</div></div>,,test_ITI,674.6174735350203,,test,0.0,674.6174735350203,,,,,,,,,,,"{'min': 0, 'max': 5, 'mean': 0.5}",,,,
257,,html-keyboard-response,257,1205764,0.0-3.0-202.0,,<div class = centerbox><div class = fixation>+</div></div>,,test_fixation,500.0,,test,2.0,500.0,,,,,,,,,,,,,,,
258,,html-keyboard-response,258,1205921,0.0-3.0-203.0,,<div class = bigbox><div class = quad_box><div class = decision-bottom-left></div></div></div>,,test_cue,150.0,,test,2.0,150.0,,,,,,,,,,,,,,,
259,,html-keyboard-response,259,1207427,0.0-3.0-204.0,,<div class = bigbox><div class = quad_box><div class = decision-bottom-left><div class = gng_number><div class = cue-text><img class = center src='/static/experiments/spatial_task_switching_rdoc/images/8.png'></img></div></div></div></div></div>,,test_trial,1500.0,,test,0.0,1000.0,"[',', '.']",tstay_cswitch,8.0,",",4.0,high,even,51.0,0.0,0,,,,,
260,,html-keyboard-response,260,1208037,0.0-3.0-205.0,,<div class = centerbox><div class = fixation>+</div></div>,,test_ITI,605.9509960938715,,test,0.0,605.9509960938715,,,,,,,,,,,"{'min': 0, 'max': 5, 'mean': 0.5}",,,,
261,,html-keyboard-response,261,1208543,0.0-3.0-206.0,,<div class = centerbox><div class = fixation>+</div></div>,,test_fixation,500.0,,test,2.0,500.0,,,,,,,,,,,,,,,
262,,html-keyboard-response,262,1208698,0.0-3.0-207.0,,<div class = bigbox><div class = quad_box><div class = decision-top-right></div></div></div>,,test_cue,150.0,,test,2.0,150.0,,,,,,,,,,,,,,,
263,,html-keyboard-response,263,1211182,0.0-3.0-208.0,,<div class = bigbox><div class = quad_box><div class = decision-top-right><div class = gng_number><div class = cue-text><img class = center src='/static/experiments/spatial_task_switching_rdoc/images/8.png'></img></div></div></div></div></div>,,test_trial,1500.0,,test,0.0,1000.0,"[',', '.']",tswitch_cswitch,8.0,",",2.0,high,even,52.0,0.0,0,,,,,
264,,html-keyboard-response,264,1213180,0.0-3.0-209.0,,<div class = centerbox><div class = fixation>+</div></div>,,test_ITI,1778.6105067963736,,test,0.0,1778.6105067963736,,,,,,,,,,,"{'min': 0, 'max': 5, 'mean': 0.5}",,,,
265,,html-keyboard-response,265,1214179,0.0-3.0-210.0,,<div class = centerbox><div class = fixation>+</div></div>,,test_fixation,500.0,,test,2.0,500.0,,,,,,,,,,,,,,,
266,,html-keyboard-response,266,1215179,0.0-3.0-211.0,,<div class = bigbox><div class = quad_box><div class = decision-bottom-right></div></div></div>,,test_cue,150.0,,test,2.0,150.0,,,,,,,,,,,,,,,
267,,html-keyboard-response,267,1217182,0.0-3.0-212.0,,<div class = bigbox><div class = quad_box><div class = decision-bottom-right><div class = gng_number><div class = cue-text><img class = center src='/static/experiments/spatial_task_switching_rdoc/images/6.png'></img></div></div></div></div></div>,,test_trial,1500.0,,test,0.0,1000.0,"[',', '.']",tswitch_cswitch,6.0,",",3.0,high,even,53.0,0.0,0,,,,,
268,,html-keyboard-response,268,1218184,0.0-3.0-213.0,,<div class = centerbox><div class = fixation>+</div></div>,,test_ITI,31.371595608687667,,test,0.0,31.371595608687667,,,,,,,,,,,"{'min': 0, 'max': 5, 'mean': 0.5}",,,,
269,,html-keyboard-response,269,1219183,0.0-3.0-214.0,,<div class = centerbox><div class = fixation>+</div></div>,,test_fixation,500.0,,test,2.0,500.0,,,,,,,,,,,,,,,
270,,html-keyboard-response,270,1220184,0.0-3.0-215.0,,<div class = bigbox><div class = quad_box><div class = decision-bottom-left></div></div></div>,,test_cue,150.0,,test,2.0,150.0,,,,,,,,,,,,,,,
271,,html-keyboard-response,271,1222179,0.0-3.0-216.0,,<div class = bigbox><div class = quad_box><div class = decision-bottom-left><div class = gng_number><div class = cue-text><img class = center src='/static/experiments/spatial_task_switching_rdoc/images/2.png'></img></div></div></div></div></div>,,test_trial,1500.0,,test,0.0,1000.0,"[',', '.']",tstay_cswitch,2.0,",",4.0,low,even,54.0,0.0,0,,,,,
272,,html-keyboard-response,272,1222563,0.0-3.0-217.0,,<div class = centerbox><div class = fixation>+</div></div>,,test_ITI,376.11990150287414,,test,0.0,376.11990150287414,,,,,,,,,,,"{'min': 0, 'max': 5, 'mean': 0.5}",,,,
273,,html-keyboard-response,273,1223068,0.0-3.0-218.0,,<div class = centerbox><div class = fixation>+</div></div>,,test_fixation,500.0,,test,2.0,500.0,,,,,,,,,,,,,,,
274,,html-keyboard-response,274,1224184,0.0-3.0-219.0,,<div class = bigbox><div class = quad_box><div class = decision-bottom-right></div></div></div>,,test_cue,150.0,,test,2.0,150.0,,,,,,,,,,,,,,,
275,,html-keyboard-response,275,1226184,0.0-3.0-220.0,,<div class = bigbox><div class = quad_box><div class = decision-bottom-right><div class = gng_number><div class = cue-text><img class = center src='/static/experiments/spatial_task_switching_rdoc/images/3.png'></img></div></div></div></div></div>,,test_trial,1500.0,,test,0.0,1000.0,"[',', '.']",tstay_cswitch,3.0,.,3.0,low,odd,55.0,0.0,0,,,,,
276,,html-keyboard-response,276,1227183,0.0-3.0-221.0,,<div class = centerbox><div class = fixation>+</div></div>,,test_ITI,182.35829362763855,,test,0.0,182.35829362763855,,,,,,,,,,,"{'min': 0, 'max': 5, 'mean': 0.5}",,,,
277,,html-keyboard-response,277,1228183,0.0-3.0-222.0,,<div class = centerbox><div class = fixation>+</div></div>,,test_fixation,500.0,,test,2.0,500.0,,,,,,,,,,,,,,,
278,,html-keyboard-response,278,1229184,0.0-3.0-223.0,,<div class = bigbox><div class = quad_box><div class = decision-bottom-right></div></div></div>,,test_cue,150.0,,test,2.0,150.0,,,,,,,,,,,,,,,
279,,html-keyboard-response,279,1231183,0.0-3.0-224.0,,<div class = bigbox><div class = quad_box><div class = decision-bottom-right><div class = gng_number><div class = cue-text><img class = center src='/static/experiments/spatial_task_switching_rdoc/images/2.png'></img></div></div></div></div></div>,,test_trial,1500.0,,test,0.0,1000.0,"[',', '.']",tstay_cstay,2.0,",",3.0,low,even,56.0,0.0,0,,,,,
280,,html-keyboard-response,280,1232183,0.0-3.0-225.0,,<div class = centerbox><div class = fixation>+</div></div>,,test_ITI,123.5993595627344,,test,0.0,123.5993595627344,,,,,,,,,,,"{'min': 0, 'max': 5, 'mean': 0.5}",,,,
281,,html-keyboard-response,281,1233182,0.0-3.0-226.0,,<div class = centerbox><div class = fixation>+</div></div>,,test_fixation,500.0,,test,2.0,500.0,,,,,,,,,,,,,,,
282,,html-keyboard-response,282,1234180,0.0-3.0-227.0,,<div class = bigbox><div class = quad_box><div class = decision-bottom-left></div></div></div>,,test_cue,150.0,,test,2.0,150.0,,,,,,,,,,,,,,,
283,,html-keyboard-response,283,1236183,0.0-3.0-228.0,,<div class = bigbox><div class = quad_box><div class = decision-bottom-left><div class = gng_number><div class = cue-text><img class = center src='/static/experiments/spatial_task_switching_rdoc/images/4.png'></img></div></div></div></div></div>,,test_trial,1500.0,,test,0.0,1000.0,"[',', '.']",tstay_cswitch,4.0,",",4.0,low,even,57.0,0.0,0,,,,,
284,,html-keyboard-response,284,1237180,0.0-3.0-229.0,,<div class = centerbox><div class = fixation>+</div></div>,,test_ITI,148.79409438926368,,test,0.0,148.79409438926368,,,,,,,,,,,"{'min': 0, 'max': 5, 'mean': 0.5}",,,,
285,,html-keyboard-response,285,1238184,0.0-3.0-230.0,,<div class = centerbox><div class = fixation>+</div></div>,,test_fixation,500.0,,test,2.0,500.0,,,,,,,,,,,,,,,
286,,html-keyboard-response,286,1239181,0.0-3.0-231.0,,<div class = bigbox><div class = quad_box><div class = decision-top-left></div></div></div>,,test_cue,150.0,,test,2.0,150.0,,,,,,,,,,,,,,,
287,,html-keyboard-response,287,1241184,0.0-3.0-232.0,,<div class = bigbox><div class = quad_box><div class = decision-top-left><div class = gng_number><div class = cue-text><img class = center src='/static/experiments/spatial_task_switching_rdoc/images/3.png'></img></div></div></div></div></div>,,test_trial,1500.0,,test,0.0,1000.0,"[',', '.']",tswitch_cswitch,3.0,.,1.0,low,odd,58.0,0.0,0,,,,,
288,,html-keyboard-response,288,1242183,0.0-3.0-233.0,,<div class = centerbox><div class = fixation>+</div></div>,,test_ITI,168.57786901071378,,test,0.0,168.57786901071378,,,,,,,,,,,"{'min': 0, 'max': 5, 'mean': 0.5}",,,,
289,,html-keyboard-response,289,1243183,0.0-3.0-234.0,,<div class = centerbox><div class = fixation>+</div></div>,,test_fixation,500.0,,test,2.0,500.0,,,,,,,,,,,,,,,
290,,html-keyboard-response,290,1244184,0.0-3.0-235.0,,<div class = bigbox><div class = quad_box><div class = decision-bottom-right></div></div></div>,,test_cue,150.0,,test,2.0,150.0,,,,,,,,,,,,,,,
291,,html-keyboard-response,291,1246179,0.0-3.0-236.0,,<div class = bigbox><div class = quad_box><div class = decision-bottom-right><div class = gng_number><div class = cue-text><img class = center src='/static/experiments/spatial_task_switching_rdoc/images/2.png'></img></div></div></div></div></div>,,test_trial,1500.0,,test,0.0,1000.0,"[',', '.']",tswitch_cswitch,2.0,",",3.0,low,even,59.0,0.0,0,,,,,
292,,html-keyboard-response,292,1247183,0.0-3.0-237.0,,<div class = centerbox><div class = fixation>+</div></div>,,test_ITI,601.4592055899722,,test,0.0,601.4592055899722,,,,,,,,,,,"{'min': 0, 'max': 5, 'mean': 0.5}",,,,
293,,html-keyboard-response,293,1248183,0.0-3.0-238.0,,<div class = centerbox><div class = fixation>+</div></div>,,test_fixation,500.0,,test,2.0,500.0,,,,,,,,,,,,,,,
294,,html-keyboard-response,294,1249181,0.0-3.0-239.0,,<div class = bigbox><div class = quad_box><div class = decision-top-right></div></div></div>,,test_cue,150.0,,test,2.0,150.0,,,,,,,,,,,,,,,
295,,html-keyboard-response,295,1251184,0.0-3.0-240.0,,<div class = bigbox><div class = quad_box><div class = decision-top-right><div class = gng_number><div class = cue-text><img class = center src='/static/experiments/spatial_task_switching_rdoc/images/3.png'></img></div></div></div></div></div>,,test_trial,1500.0,,test,0.0,1000.0,"[',', '.']",tswitch_cswitch,3.0,.,2.0,low,odd,60.0,0.0,0,,,,,
296,,html-keyboard-response,296,1252183,0.0-3.0-241.0,,<div class = centerbox><div class = fixation>+</div></div>,,test_ITI,551.6447663606467,,test,0.0,551.6447663606467,,,,,,,,,,,"{'min': 0, 'max': 5, 'mean': 0.5}",,,,
297,,html-keyboard-response,297,1253185,0.0-3.0-242.0,,<div class = centerbox><div class = fixation>+</div></div>,,test_fixation,500.0,,test,2.0,500.0,,,,,,,,,,,,,,,
298,,html-keyboard-response,298,1254180,0.0-3.0-243.0,,<div class = bigbox><div class = quad_box><div class = decision-bottom-left></div></div></div>,,test_cue,150.0,,test,2.0,150.0,,,,,,,,,,,,,,,
299,,html-keyboard-response,299,1256183,0.0-3.0-244.0,,<div class = bigbox><div class = quad_box><div class = decision-bottom-left><div class = gng_number><div class = cue-text><img class = center src='/static/experiments/spatial_task_switching_rdoc/images/7.png'></img></div></div></div></div></div>,,test_trial,1500.0,,test,0.0,1000.0,"[',', '.']",tswitch_cswitch,7.0,.,4.0,high,odd,61.0,0.0,0,,,,,
300,,html-keyboard-response,300,1257181,0.0-3.0-245.0,,<div class = centerbox><div class = fixation>+</div></div>,,test_ITI,243.70612827824309,,test,0.0,243.70612827824309,,,,,,,,,,,"{'min': 0, 'max': 5, 'mean': 0.5}",,,,
301,,html-keyboard-response,301,1258184,0.0-3.0-246.0,,<div class = centerbox><div class = fixation>+</div></div>,,test_fixation,500.0,,test,2.0,500.0,,,,,,,,,,,,,,,
302,,html-keyboard-response,302,1259179,0.0-3.0-247.0,,<div class = bigbox><div class = quad_box><div class = decision-bottom-right></div></div></div>,,test_cue,150.0,,test,2.0,150.0,,,,,,,,,,,,,,,
303,,html-keyboard-response,303,1261184,0.0-3.0-248.0,,<div class = bigbox><div class = quad_box><div class = decision-bottom-right><div class = gng_number><div class = cue-text><img class = center src='/static/experiments/spatial_task_switching_rdoc/images/4.png'></img></div></div></div></div></div>,,test_trial,1500.0,,test,0.0,1000.0,"[',', '.']",tstay_cswitch,4.0,",",3.0,low,even,62.0,0.0,0,,,,,
304,,html-keyboard-response,304,1262180,0.0-3.0-249.0,,<div class = centerbox><div class = fixation>+</div></div>,,test_ITI,234.79410810527799,,test,0.0,234.79410810527799,,,,,,,,,,,"{'min': 0, 'max': 5, 'mean': 0.5}",,,,
305,,html-keyboard-response,305,1263183,0.0-3.0-250.0,,<div class = centerbox><div class = fixation>+</div></div>,,test_fixation,500.0,,test,2.0,500.0,,,,,,,,,,,,,,,
306,,html-keyboard-response,306,1264183,0.0-3.0-251.0,,<div class = bigbox><div class = quad_box><div class = decision-bottom-left></div></div></div>,,test_cue,150.0,,test,2.0,150.0,,,,,,,,,,,,,,,
307,,html-keyboard-response,307,1266183,0.0-3.0-252.0,,<div class = bigbox><div class = quad_box><div class = decision-bottom-left><div class = gng_number><div class = cue-text><img class = center src='/static/experiments/spatial_task_switching_rdoc/images/9.png'></img></div></div></div></div></div>,,test_trial,1500.0,,test,0.0,1000.0,"[',', '.']",tstay_cswitch,9.0,.,4.0,high,odd,63.0,0.0,0,,,,,
308,,html-keyboard-response,308,1267183,0.0-3.0-253.0,,<div class = centerbox><div class = fixation>+</div></div>,,test_ITI,359.81508154682695,,test,0.0,359.81508154682695,,,,,,,,,,,"{'min': 0, 'max': 5, 'mean': 0.5}",,,,
309,,html-keyboard-response,309,1268184,0.0-3.0-254.0,,<div class = centerbox><div class = fixation>+</div></div>,,test_fixation,500.0,,test,2.0,500.0,,,,,,,,,,,,,,,
310,,html-keyboard-response,310,1269180,0.0-3.0-255.0,,<div class = bigbox><div class = quad_box><div class = decision-top-left></div></div></div>,,test_cue,150.0,,test,2.0,150.0,,,,,,,,,,,,,,,
311,,html-keyboard-response,311,1271181,0.0-3.0-256.0,,<div class = bigbox><div class = quad_box><div class = decision-top-left><div class = gng_number><div class = cue-text><img class = center src='/static/experiments/spatial_task_switching_rdoc/images/3.png'></img></div></div></div></div></div>,,test_trial,1500.0,,test,0.0,1000.0,"[',', '.']",tswitch_cswitch,3.0,.,1.0,low,odd,64.0,0.0,0,,,,,
312,,html-keyboard-response,312,1273184,0.0-3.0-257.0,,<div class = centerbox><div class = fixation>+</div></div>,,test_ITI,1333.7346410295222,,test,0.0,1333.7346410295222,,,,,,,,,,,"{'min': 0, 'max': 5, 'mean': 0.5}",,,,
313,,html-keyboard-response,313,1274183,0.0-3.0-258.0,,<div class = centerbox><div class = fixation>+</div></div>,,test_fixation,500.0,,test,2.0,500.0,,,,,,,,,,,,,,,
314,,html-keyboard-response,314,1275184,0.0-3.0-259.0,,<div class = bigbox><div class = quad_box><div class = decision-bottom-left></div></div></div>,,test_cue,150.0,,test,2.0,150.0,,,,,,,,,,,,,,,
315,,html-keyboard-response,315,1277181,0.0-3.0-260.0,,<div class = bigbox><div class = quad_box><div class = decision-bottom-left><div class = gng_number><div class = cue-text><img class = center src='/static/experiments/spatial_task_switching_rdoc/images/8.png'></img></div></div></div></div></div>,,test_trial,1500.0,,test,0.0,1000.0,"[',', '.']",tswitch_cswitch,8.0,",",4.0,high,even,65.0,0.0,0,,,,,
316,,html-keyboard-response,316,1279184,0.0-3.0-261.0,,<div class = centerbox><div class = fixation>+</div></div>,,test_ITI,1084.7384413219308,,test,0.0,1084.7384413219308,,,,,,,,,,,"{'min': 0, 'max': 5, 'mean': 0.5}",,,,
317,,html-keyboard-response,317,1340183,0.0-3.1-0.1,,"<div class = bigbox><div class = picture_box><p class = block-text>
    <div class = centerbox><p class = block-text>Please take this time to read your feedback! This screen will advance automatically in 1 minute.</p><p class=block-text>You have completed 1 out of 3 blocks of trials.</p>
          <p class=""block-text"">Your accuracy is low. Remember:</p>
          
  <ul style=""text-align:left;"">
    <li>Top 2 quadrants: judge number on magnitude</li>
    <li>high: index finger</li>
    <li>low: middle finger</li>
    <li>Bottom 2 quadrants: judge number on parity</li>
    <li>even: index finger</li>
    <li>odd: middle finger</li>
  </ul>
        
        <p class=""block-text"">You have been responding too slowly.<p class = block-text>Try to respond as quickly and accurately as possible.</p></p>
      
          <p class=""block-text"">You have not been responding to some trials. Please respond on every trial that requires a response.</p>
        <p class=block-text>Press <i>enter</i> to continue.</p></div>
    </font></p></div></div>",,test_feedback,60000.0,,test,1.0,,,,,,,,,,,,,,,,
318,,html-keyboard-response,318,1401183,0.0-3.1-1.1-0.1,,,,test_attention_check,,,test,1.0,,,,,,,,,,,False,,<p class='block-text'>Press the key for the first letter of the English alphabet.</p> <div class=block-text>This screen will advance automatically in 1 minute.</div>,65.0,,
319,,html-keyboard-response,319,1424183,0.0-3.1-2.1,,<div class = centerbox><div class = fixation>+</div></div>,,test_fixation,500.0,,test,2.0,500.0,,,,,,,,,,,,,,,
320,,html-keyboard-response,320,1484180,0.0-3.1-3.1,,<div class = bigbox><div class = quad_box><div class = decision-bottom-right></div></div></div>,,test_cue,150.0,,test,2.0,150.0,,,,,,,,,,,,,,,
321,,html-keyboard-response,321,1544182,0.0-3.1-4.1,,<div class = bigbox><div class = quad_box><div class = decision-bottom-right><div class = gng_number><div class = cue-text><img class = center src='/static/experiments/spatial_task_switching_rdoc/images/4.png'></img></div></div></div></div></div>,,test_trial,1500.0,,test,1.0,1000.0,"[',', '.']",na,4.0,",",3.0,low,even,1.0,1.0,0,,,,,
322,,html-keyboard-response,322,1604183,0.0-3.1-5.1,,<div class = centerbox><div class = fixation>+</div></div>,,test_ITI,235.6211349351933,,test,1.0,235.6211349351933,,,,,,,,,,,"{'min': 0, 'max': 5, 'mean': 0.5}",,,,
323,,html-keyboard-response,323,1664180,0.0-3.1-6.1,,<div class = centerbox><div class = fixation>+</div></div>,,test_fixation,500.0,,test,2.0,500.0,,,,,,,,,,,,,,,
324,,html-keyboard-response,324,1724185,0.0-3.1-7.1,,<div class = bigbox><div class = quad_box><div class = decision-bottom-left></div></div></div>,,test_cue,150.0,,test,2.0,150.0,,,,,,,,,,,,,,,
325,,html-keyboard-response,325,1784179,0.0-3.1-8.1,,<div class = bigbox><div class = quad_box><div class = decision-bottom-left><div class = gng_number><div class = cue-text><img class = center src='/static/experiments/spatial_task_switching_rdoc/images/9.png'></img></div></div></div></div></div>,,test_trial,1500.0,,test,1.0,1000.0,"[',', '.']",tstay_cswitch,9.0,.,4.0,high,odd,2.0,1.0,0,,,,,
326,,html-keyboard-response,326,1844182,0.0-3.1-9.1,,<div class = centerbox><div class = fixation>+</div></div>,,test_ITI,422.1160957130589,,test,1.0,422.1160957130589,,,,,,,,,,,"{'min': 0, 'max': 5, 'mean': 0.5}",,,,
327,,html-keyboard-response,327,1859937,0.0-3.1-10.1,,<div class = centerbox><div class = fixation>+</div></div>,,test_fixation,500.0,,test,2.0,500.0,,,,,,,,,,,,,,,
328,,html-keyboard-response,328,1860094,0.0-3.1-11.1,,<div class = bigbox><div class = quad_box><div class = decision-bottom-left></div></div></div>,,test_cue,150.0,,test,2.0,150.0,,,,,,,,,,,,,,,
329,,html-keyboard-response,329,1862179,0.0-3.1-12.1,,<div class = bigbox><div class = quad_box><div class = decision-bottom-left><div class = gng_number><div class = cue-text><img class = center src='/static/experiments/spatial_task_switching_rdoc/images/2.png'></img></div></div></div></div></div>,,test_trial,1500.0,,test,1.0,1000.0,"[',', '.']",tstay_cstay,2.0,",",4.0,low,even,3.0,1.0,0,,,,,
330,,html-keyboard-response,330,1863181,0.0-3.1-13.1,,<div class = centerbox><div class = fixation>+</div></div>,,test_ITI,640.5313373662681,,test,1.0,640.5313373662681,,,,,,,,,,,"{'min': 0, 'max': 5, 'mean': 0.5}",,,,
331,,html-keyboard-response,331,1864182,0.0-3.1-14.1,,<div class = centerbox><div class = fixation>+</div></div>,,test_fixation,500.0,,test,2.0,500.0,,,,,,,,,,,,,,,
332,,html-keyboard-response,332,1865182,0.0-3.1-15.1,,<div class = bigbox><div class = quad_box><div class = decision-top-left></div></div></div>,,test_cue,150.0,,test,2.0,150.0,,,,,,,,,,,,,,,
333,,html-keyboard-response,333,1867183,0.0-3.1-16.1,,<div class = bigbox><div class = quad_box><div class = decision-top-left><div class = gng_number><div class = cue-text><img class = center src='/static/experiments/spatial_task_switching_rdoc/images/1.png'></img></div></div></div></div></div>,,test_trial,1500.0,,test,1.0,1000.0,"[',', '.']",tswitch_cswitch,1.0,.,1.0,low,odd,4.0,1.0,0,,,,,
334,,html-keyboard-response,334,1868182,0.0-3.1-17.1,,<div class = centerbox><div class = fixation>+</div></div>,,test_ITI,184.77758344111137,,test,1.0,184.77758344111137,,,,,,,,,,,"{'min': 0, 'max': 5, 'mean': 0.5}",,,,
335,,html-keyboard-response,335,1869182,0.0-3.1-18.1,,<div class = centerbox><div class = fixation>+</div></div>,,test_fixation,500.0,,test,2.0,500.0,,,,,,,,,,,,,,,
336,,html-keyboard-response,336,1870182,0.0-3.1-19.1,,<div class = bigbox><div class = quad_box><div class = decision-bottom-right></div></div></div>,,test_cue,150.0,,test,2.0,150.0,,,,,,,,,,,,,,,
337,,html-keyboard-response,337,1872183,0.0-3.1-20.1,,<div class = bigbox><div class = quad_box><div class = decision-bottom-right><div class = gng_number><div class = cue-text><img class = center src='/static/experiments/spatial_task_switching_rdoc/images/2.png'></img></div></div></div></div></div>,,test_trial,1500.0,,test,1.0,1000.0,"[',', '.']",tswitch_cswitch,2.0,",",3.0,low,even,5.0,1.0,0,,,,,
338,,html-keyboard-response,338,1873182,0.0-3.1-21.1,,<div class = centerbox><div class = fixation>+</div></div>,,test_ITI,164.96278135884438,,test,1.0,164.96278135884438,,,,,,,,,,,"{'min': 0, 'max': 5, 'mean': 0.5}",,,,
339,,html-keyboard-response,339,1874180,0.0-3.1-22.1,,<div class = centerbox><div class = fixation>+</div></div>,,test_fixation,500.0,,test,2.0,500.0,,,,,,,,,,,,,,,
340,,html-keyboard-response,340,1875179,0.0-3.1-23.1,,<div class = bigbox><div class = quad_box><div class = decision-top-left></div></div></div>,,test_cue,150.0,,test,2.0,150.0,,,,,,,,,,,,,,,
341,,html-keyboard-response,341,1877183,0.0-3.1-24.1,,<div class = bigbox><div class = quad_box><div class = decision-top-left><div class = gng_number><div class = cue-text><img class = center src='/static/experiments/spatial_task_switching_rdoc/images/9.png'></img></div></div></div></div></div>,,test_trial,1500.0,,test,1.0,1000.0,"[',', '.']",tswitch_cswitch,9.0,",",1.0,high,odd,6.0,1.0,0,,,,,
342,,html-keyboard-response,342,1878179,0.0-3.1-25.1,,<div class = centerbox><div class = fixation>+</div></div>,,test_ITI,421.5052454405715,,test,1.0,421.5052454405715,,,,,,,,,,,"{'min': 0, 'max': 5, 'mean': 0.5}",,,,
343,,html-keyboard-response,343,1879183,0.0-3.1-26.1,,<div class = centerbox><div class = fixation>+</div></div>,,test_fixation,500.0,,test,2.0,500.0,,,,,,,,,,,,,,,
344,,html-keyboard-response,344,1880182,0.0-3.1-27.1,,<div class = bigbox><div class = quad_box><div class = decision-bottom-right></div></div></div>,,test_cue,150.0,,test,2.0,150.0,,,,,,,,,,,,,,,
345,,html-keyboard-response,345,1882180,0.0-3.1-28.1,,<div class = bigbox><div class = quad_box><div class = decision-bottom-right><div class = gng_number><div class = cue-text><img class = center src='/static/experiments/spatial_task_switching_rdoc/images/3.png'></img></div></div></div></div></div>,,test_trial,1500.0,,test,1.0,1000.0,"[',', '.']",tswitch_cswitch,3.0,.,3.0,low,odd,7.0,1.0,0,,,,,
346,,html-keyboard-response,346,1883182,0.0-3.1-29.1,,<div class = centerbox><div class = fixation>+</div></div>,,test_ITI,108.45578592884334,,test,1.0,108.45578592884334,,,,,,,,,,,"{'min': 0, 'max': 5, 'mean': 0.5}",,,,
347,,html-keyboard-response,347,1884181,0.0-3.1-30.1,,<div class = centerbox><div class = fixation>+</div></div>,,test_fixation,500.0,,test,2.0,500.0,,,,,,,,,,,,,,,
348,,html-keyboard-response,348,1885182,0.0-3.1-31.1,,<div class = bigbox><div class = quad_box><div class = decision-top-left></div></div></div>,,test_cue,150.0,,test,2.0,150.0,,,,,,,,,,,,,,,
349,,html-keyboard-response,349,1887182,0.0-3.1-32.1,,<div class = bigbox><div class = quad_box><div class = decision-top-left><div class = gng_number><div class = cue-text><img class = center src='/static/experiments/spatial_task_switching_rdoc/images/3.png'></img></div></div></div></div></div>,,test_trial,1500.0,,test,1.0,1000.0,"[',', '.']",tswitch_cswitch,3.0,.,1.0,low,odd,8.0,1.0,0,,,,,
350,,html-keyboard-response,350,1888182,0.0-3.1-33.1,,<div class = centerbox><div class = fixation>+</div></div>,,test_ITI,367.2547421758285,,test,1.0,367.2547421758285,,,,,,,,,,,"{'min': 0, 'max': 5, 'mean': 0.5}",,,,
351,,html-keyboard-response,351,1889181,0.0-3.1-34.1,,<div class = centerbox><div class = fixation>+</div></div>,,test_fixation,500.0,,test,2.0,500.0,,,,,,,,,,,,,,,
352,,html-keyboard-response,352,1890182,0.0-3.1-35.1,,<div class = bigbox><div class = quad_box><div class = decision-top-right></div></div></div>,,test_cue,150.0,,test,2.0,150.0,,,,,,,,,,,,,,,
353,,html-keyboard-response,353,1892179,0.0-3.1-36.1,,<div class = bigbox><div class = quad_box><div class = decision-top-right><div class = gng_number><div class = cue-text><img class = center src='/static/experiments/spatial_task_switching_rdoc/images/7.png'></img></div></div></div></div></div>,,test_trial,1500.0,,test,1.0,1000.0,"[',', '.']",tstay_cswitch,7.0,",",2.0,high,odd,9.0,1.0,0,,,,,
354,,html-keyboard-response,354,1893178,0.0-3.1-37.1,,<div class = centerbox><div class = fixation>+</div></div>,,test_ITI,7.324299694512047,,test,1.0,7.324299694512047,,,,,,,,,,,"{'min': 0, 'max': 5, 'mean': 0.5}",,,,
355,,html-keyboard-response,355,1894180,0.0-3.1-38.1,,<div class = centerbox><div class = fixation>+</div></div>,,test_fixation,500.0,,test,2.0,500.0,,,,,,,,,,,,,,,
356,,html-keyboard-response,356,1895182,0.0-3.1-39.1,,<div class = bigbox><div class = quad_box><div class = decision-top-left></div></div></div>,,test_cue,150.0,,test,2.0,150.0,,,,,,,,,,,,,,,
357,,html-keyboard-response,357,1897182,0.0-3.1-40.1,,<div class = bigbox><div class = quad_box><div class = decision-top-left><div class = gng_number><div class = cue-text><img class = center src='/static/experiments/spatial_task_switching_rdoc/images/6.png'></img></div></div></div></div></div>,,test_trial,1500.0,,test,1.0,1000.0,"[',', '.']",tstay_cswitch,6.0,",",1.0,high,even,10.0,1.0,0,,,,,
358,,html-keyboard-response,358,1898182,0.0-3.1-41.1,,<div class = centerbox><div class = fixation>+</div></div>,,test_ITI,378.9972500315186,,test,1.0,378.9972500315186,,,,,,,,,,,"{'min': 0, 'max': 5, 'mean': 0.5}",,,,
359,,html-keyboard-response,359,1899179,0.0-3.1-42.1,,<div class = centerbox><div class = fixation>+</div></div>,,test_fixation,500.0,,test,2.0,500.0,,,,,,,,,,,,,,,
360,,html-keyboard-response,360,1900182,0.0-3.1-43.1,,<div class = bigbox><div class = quad_box><div class = decision-bottom-right></div></div></div>,,test_cue,150.0,,test,2.0,150.0,,,,,,,,,,,,,,,
361,,html-keyboard-response,361,1902179,0.0-3.1-44.1,,<div class = bigbox><div class = quad_box><div class = decision-bottom-right><div class = gng_number><div class = cue-text><img class = center src='/static/experiments/spatial_task_switching_rdoc/images/3.png'></img></div></div></div></div></div>,,test_trial,1500.0,,test,1.0,1000.0,"[',', '.']",tswitch_cswitch,3.0,.,3.0,low,odd,11.0,1.0,0,,,,,
362,,html-keyboard-response,362,1903181,0.0-3.1-45.1,,<div class = centerbox><div class = fixation>+</div></div>,,test_ITI,640.9785398557917,,test,1.0,640.9785398557917,,,,,,,,,,,"{'min': 0, 'max': 5, 'mean': 0.5}",,,,
363,,html-keyboard-response,363,1904179,0.0-3.1-46.1,,<div class = centerbox><div class = fixation>+</div></div>,,test_fixation,500.0,,test,2.0,500.0,,,,,,,,,,,,,,,
364,,html-keyboard-response,364,1905182,0.0-3.1-47.1,,<div class = bigbox><div class = quad_box><div class = decision-top-left></div></div></div>,,test_cue,150.0,,test,2.0,150.0,,,,,,,,,,,,,,,
365,,html-keyboard-response,365,1907182,0.0-3.1-48.1,,<div class = bigbox><div class = quad_box><div class = decision-top-left><div class = gng_number><div class = cue-text><img class = center src='/static/experiments/spatial_task_switching_rdoc/images/7.png'></img></div></div></div></div></div>,,test_trial,1500.0,,test,1.0,1000.0,"[',', '.']",tswitch_cswitch,7.0,",",1.0,high,odd,12.0,1.0,0,,,,,
366,,html-keyboard-response,366,1908182,0.0-3.1-49.1,,<div class = centerbox><div class = fixation>+</div></div>,,test_ITI,16.395032350967455,,test,1.0,16.395032350967455,,,,,,,,,,,"{'min': 0, 'max': 5, 'mean': 0.5}",,,,
367,,html-keyboard-response,367,1909183,0.0-3.1-50.1,,<div class = centerbox><div class = fixation>+</div></div>,,test_fixation,500.0,,test,2.0,500.0,,,,,,,,,,,,,,,
368,,html-keyboard-response,368,1910182,0.0-3.1-51.1,,<div class = bigbox><div class = quad_box><div class = decision-bottom-right></div></div></div>,,test_cue,150.0,,test,2.0,150.0,,,,,,,,,,,,,,,
369,,html-keyboard-response,369,1912183,0.0-3.1-52.1,,<div class = bigbox><div class = quad_box><div class = decision-bottom-right><div class = gng_number><div class = cue-text><img class = center src='/static/experiments/spatial_task_switching_rdoc/images/2.png'></img></div></div></div></div></div>,,test_trial,1500.0,,test,1.0,1000.0,"[',', '.']",tswitch_cswitch,2.0,",",3.0,low,even,13.0,1.0,0,,,,,
370,,html-keyboard-response,370,1913182,0.0-3.1-53.1,,<div class = centerbox><div class = fixation>+</div></div>,,test_ITI,415.82968087736845,,test,1.0,415.82968087736845,,,,,,,,,,,"{'min': 0, 'max': 5, 'mean': 0.5}",,,,
371,,html-keyboard-response,371,1914182,0.0-3.1-54.1,,<div class = centerbox><div class = fixation>+</div></div>,,test_fixation,500.0,,test,2.0,500.0,,,,,,,,,,,,,,,
372,,html-keyboard-response,372,1915183,0.0-3.1-55.1,,<div class = bigbox><div class = quad_box><div class = decision-bottom-left></div></div></div>,,test_cue,150.0,,test,2.0,150.0,,,,,,,,,,,,,,,
373,,html-keyboard-response,373,1917180,0.0-3.1-56.1,,<div class = bigbox><div class = quad_box><div class = decision-bottom-left><div class = gng_number><div class = cue-text><img class = center src='/static/experiments/spatial_task_switching_rdoc/images/2.png'></img></div></div></div></div></div>,,test_trial,1500.0,,test,1.0,1000.0,"[',', '.']",tstay_cswitch,2.0,",",4.0,low,even,14.0,1.0,0,,,,,
374,,html-keyboard-response,374,1918183,0.0-3.1-57.1,,<div class = centerbox><div class = fixation>+</div></div>,,test_ITI,165.9146661243056,,test,1.0,165.9146661243056,,,,,,,,,,,"{'min': 0, 'max': 5, 'mean': 0.5}",,,,
375,,html-keyboard-response,375,1919182,0.0-3.1-58.1,,<div class = centerbox><div class = fixation>+</div></div>,,test_fixation,500.0,,test,2.0,500.0,,,,,,,,,,,,,,,
376,,html-keyboard-response,376,1920182,0.0-3.1-59.1,,<div class = bigbox><div class = quad_box><div class = decision-top-right></div></div></div>,,test_cue,150.0,,test,2.0,150.0,,,,,,,,,,,,,,,
377,,html-keyboard-response,377,1964181,0.0-3.1-60.1,,<div class = bigbox><div class = quad_box><div class = decision-top-right><div class = gng_number><div class = cue-text><img class = center src='/static/experiments/spatial_task_switching_rdoc/images/1.png'></img></div></div></div></div></div>,,test_trial,1500.0,,test,1.0,1000.0,"[',', '.']",tswitch_cswitch,1.0,.,2.0,low,odd,15.0,1.0,0,,,,,
378,,html-keyboard-response,378,2024182,0.0-3.1-61.1,,<div class = centerbox><div class = fixation>+</div></div>,,test_ITI,511.28302721577444,,test,1.0,511.28302721577444,,,,,,,,,,,"{'min': 0, 'max': 5, 'mean': 0.5}",,,,
379,,html-keyboard-response,379,2084183,0.0-3.1-62.1,,<div class = centerbox><div class = fixation>+</div></div>,,test_fixation,500.0,,test,2.0,500.0,,,,,,,,,,,,,,,
380,,html-keyboard-response,380,2144182,0.0-3.1-63.1,,<div class = bigbox><div class = quad_box><div class = decision-bottom-left></div></div></div>,,test_cue,150.0,,test,2.0,150.0,,,,,,,,,,,,,,,
381,,html-keyboard-response,381,2204181,0.0-3.1-64.1,,<div class = bigbox><div class = quad_box><div class = decision-bottom-left><div class = gng_number><div class = cue-text><img class = center src='/static/experiments/spatial_task_switching_rdoc/images/6.png'></img></div></div></div></div></div>,,test_trial,1500.0,,test,1.0,1000.0,"[',', '.']",tswitch_cswitch,6.0,",",4.0,high,even,16.0,1.0,0,,,,,
382,,html-keyboard-response,382,2264181,0.0-3.1-65.1,,<div class = centerbox><div class = fixation>+</div></div>,,test_ITI,216.37203471599744,,test,1.0,216.37203471599744,,,,,,,,,,,"{'min': 0, 'max': 5, 'mean': 0.5}",,,,
383,,html-keyboard-response,383,2282629,0.0-3.1-66.1,,<div class = centerbox><div class = fixation>+</div></div>,,test_fixation,500.0,,test,2.0,500.0,,,,,,,,,,,,,,,
384,,html-keyboard-response,384,2282785,0.0-3.1-67.1,,<div class = bigbox><div class = quad_box><div class = decision-bottom-left></div></div></div>,,test_cue,150.0,,test,2.0,150.0,,,,,,,,,,,,,,,
385,,html-keyboard-response,385,2285182,0.0-3.1-68.1,,<div class = bigbox><div class = quad_box><div class = decision-bottom-left><div class = gng_number><div class = cue-text><img class = center src='/static/experiments/spatial_task_switching_rdoc/images/4.png'></img></div></div></div></div></div>,,test_trial,1500.0,,test,1.0,1000.0,"[',', '.']",tstay_cstay,4.0,",",4.0,low,even,17.0,1.0,0,,,,,
386,,html-keyboard-response,386,2286178,0.0-3.1-69.1,,<div class = centerbox><div class = fixation>+</div></div>,,test_ITI,289.62897375109685,,test,1.0,289.62897375109685,,,,,,,,,,,"{'min': 0, 'max': 5, 'mean': 0.5}",,,,
387,,html-keyboard-response,387,2287178,0.0-3.1-70.1,,<div class = centerbox><div class = fixation>+</div></div>,,test_fixation,500.0,,test,2.0,500.0,,,,,,,,,,,,,,,
388,,html-keyboard-response,388,2288181,0.0-3.1-71.1,,<div class = bigbox><div class = quad_box><div class = decision-top-left></div></div></div>,,test_cue,150.0,,test,2.0,150.0,,,,,,,,,,,,,,,
389,,html-keyboard-response,389,2290179,0.0-3.1-72.1,,<div class = bigbox><div class = quad_box><div class = decision-top-left><div class = gng_number><div class = cue-text><img class = center src='/static/experiments/spatial_task_switching_rdoc/images/4.png'></img></div></div></div></div></div>,,test_trial,1500.0,,test,1.0,1000.0,"[',', '.']",tswitch_cswitch,4.0,.,1.0,low,even,18.0,1.0,0,,,,,
390,,html-keyboard-response,390,2291178,0.0-3.1-73.1,,<div class = centerbox><div class = fixation>+</div></div>,,test_ITI,90.46600981014558,,test,1.0,90.46600981014558,,,,,,,,,,,"{'min': 0, 'max': 5, 'mean': 0.5}",,,,
391,,html-keyboard-response,391,2292182,0.0-3.1-74.1,,<div class = centerbox><div class = fixation>+</div></div>,,test_fixation,500.0,,test,2.0,500.0,,,,,,,,,,,,,,,
392,,html-keyboard-response,392,2293182,0.0-3.1-75.1,,<div class = bigbox><div class = quad_box><div class = decision-top-left></div></div></div>,,test_cue,150.0,,test,2.0,150.0,,,,,,,,,,,,,,,
393,,html-keyboard-response,393,2295181,0.0-3.1-76.1,,<div class = bigbox><div class = quad_box><div class = decision-top-left><div class = gng_number><div class = cue-text><img class = center src='/static/experiments/spatial_task_switching_rdoc/images/2.png'></img></div></div></div></div></div>,,test_trial,1500.0,,test,1.0,1000.0,"[',', '.']",tstay_cstay,2.0,.,1.0,low,even,19.0,1.0,0,,,,,
394,,html-keyboard-response,394,2296178,0.0-3.1-77.1,,<div class = centerbox><div class = fixation>+</div></div>,,test_ITI,516.0682326638575,,test,1.0,516.0682326638575,,,,,,,,,,,"{'min': 0, 'max': 5, 'mean': 0.5}",,,,
395,,html-keyboard-response,395,2297181,0.0-3.1-78.1,,<div class = centerbox><div class = fixation>+</div></div>,,test_fixation,500.0,,test,2.0,500.0,,,,,,,,,,,,,,,
396,,html-keyboard-response,396,2298178,0.0-3.1-79.1,,<div class = bigbox><div class = quad_box><div class = decision-top-left></div></div></div>,,test_cue,150.0,,test,2.0,150.0,,,,,,,,,,,,,,,
397,,html-keyboard-response,397,2300182,0.0-3.1-80.1,,<div class = bigbox><div class = quad_box><div class = decision-top-left><div class = gng_number><div class = cue-text><img class = center src='/static/experiments/spatial_task_switching_rdoc/images/2.png'></img></div></div></div></div></div>,,test_trial,1500.0,,test,1.0,1000.0,"[',', '.']",tstay_cstay,2.0,.,1.0,low,even,20.0,1.0,0,,,,,
398,,html-keyboard-response,398,2301178,0.0-3.1-81.1,,<div class = centerbox><div class = fixation>+</div></div>,,test_ITI,84.28991642668302,,test,1.0,84.28991642668302,,,,,,,,,,,"{'min': 0, 'max': 5, 'mean': 0.5}",,,,
399,,html-keyboard-response,399,2302178,0.0-3.1-82.1,,<div class = centerbox><div class = fixation>+</div></div>,,test_fixation,500.0,,test,2.0,500.0,,,,,,,,,,,,,,,
