,success,trial_type,trial_index,time_elapsed,internal_node_id,rt,stimulus,response,trial_id,trial_duration,view_history,exp_stage,block_num,stimulus_duration,response_ends_trial,SS_stimulus,SS_trial_type,SS_duration,SSD,choices,correct_choice,stim,correct_response,currentTrial,condition,stop_acc,correct_trial,ITIParams,go_acc,current_question,current_key_answer,exp_id,attention_check_percent
0,True,fullscreen,0,1654,0.0-0.0,,,,,,,,,,,,,,,,,,,,,,,,,,,,
1,,html-keyboard-response,1,1961,0.0-1.0-0.0,305.0,"<div class = centerbox><p class = center-block-text>
    
  <p class=""center-block-text"">
    Welcome! This experiment will take around 10 minutes.
  </p>
  <p class=""center-block-text"">
    To avoid technical issues, please keep the experiment tab (on Chrome or Firefox) active and in fullscreen mode for the whole duration of each task.
  </p>
  <p class=""center-block-text""> Press <i>enter</i> to begin.</p>

    </p></div>",enter,instruction_feedback,180000.0,,,,,,,,,,,,,,,,,,,,,,,
2,,instructions,2,5871,0.0-1.0-1.0,3909.0,,,instructions,,"[{'page_index': 0, 'viewing_time': 2088}, {'page_index': 1, 'viewing_time': 162}, {'page_index': 2, 'viewing_time': 1658}]",,,,,,,,,,,,,,,,,,,,,,
3,,html-keyboard-response,3,6512,0.0-2.0-0.0,640.0,"<div class = bigbox><div class = picture_box><p class = block-text>
    <div class = centerbox><p class = center-block-text>Press <i>enter</i> to begin practice.</p></div>
    </font></p></div></div>",enter,practice_feedback,60000.0,,practice,0.0,,,,,,,,,,,,,,,,,,,,
4,,html-keyboard-response,4,7017,0.0-2.0-1.0,,<div class = centerbox><div class = fixation>+</div></div>,,practice_fixation,500.0,,practice,0.0,500.0,,,,,,,,,,,,,,,,,,,
5,,poldracklab-stop-signal,5,8522,0.0-2.0-2.0,484.0,<div class = centerbox><div class = cue-text><img class = center src='/static/experiments/stop_signal_rdoc/images/circle.png'></img></div></div>,",",practice_trial,1500.0,,practice,0.0,1000.0,False,<img class = center src='/static/experiments/stop_signal_rdoc/images/stopSignal.png'></img>,stop,500.0,350.0,"[',', '.']",,circle,,1.0,stop,0.0,0,,,,,,
6,,html-keyboard-response,6,9027,0.0-2.0-3.0,,"<div class = fb_box><div class = center-text><font size = 20>There was a star</font></div></div>
  <div class=""prompt_box"">
    <p class=""center-block-text"" style=""font-size:16px; line-height:80%;"">circle: index finger</p>
    <p class=""center-block-text"" style=""font-size:16px; line-height:80%;"">square: middle finger</p>
    <p class=""center-block-text"" style=""font-size:16px; line-height:80%;"">Do not respond if a star appears.</p>
  </div>
",,practice_feedback,500.0,,practice,0.0,500.0,,,,,,,,,,,,,,,,,,,
7,,html-keyboard-response,7,9053,0.0-2.0-4.0,,<div class = centerbox><div class = fixation>+</div></div>,,practice_ITI,23.52543414356903,,practice,0.0,23.52543414356903,,,,,,,,,,,,,,"{'min': 0, 'max': 5, 'mean': 0.5}",,,,,
8,,html-keyboard-response,8,9558,0.0-2.0-5.0,,<div class = centerbox><div class = fixation>+</div></div>,,practice_fixation,500.0,,practice,0.0,500.0,,,,,,,,,,,,,,,,,,,
9,,poldracklab-stop-signal,9,11064,0.0-2.0-6.0,443.0,<div class = centerbox><div class = cue-text><img class = center src='/static/experiments/stop_signal_rdoc/images/circle.png'></img></div></div>,",",practice_trial,1500.0,,practice,0.0,1000.0,False,<img class = center src='/static/experiments/stop_signal_rdoc/images/stopSignal.png'></img>,go,500.0,300.0,"[',', '.']",",",circle,",",2.0,go,,1,,1.0,,,,
10,,html-keyboard-response,10,11572,0.0-2.0-7.0,,"<div class = fb_box><div class = center-text><font size = 20>Correct!</font></div></div>
  <div class=""prompt_box"">
    <p class=""center-block-text"" style=""font-size:16px; line-height:80%;"">circle: index finger</p>
    <p class=""center-block-text"" style=""font-size:16px; line-height:80%;"">square: middle finger</p>
    <p class=""center-block-text"" style=""font-size:16px; line-height:80%;"">Do not respond if a star appears.</p>
  </div>
",,practice_feedback,500.0,,practice,0.0,500.0,,,,,,,,,,,,,,,,,,,
11,,html-keyboard-response,11,11578,0.0-2.0-8.0,,<div class = centerbox><div class = fixation>+</div></div>,,practice_ITI,1.5342024486167327,,practice,0.0,1.5342024486167327,,,,,,,,,,,,,,"{'min': 0, 'max': 5, 'mean': 0.5}",,,,,
12,,html-keyboard-response,12,12081,0.0-2.0-9.0,,<div class = centerbox><div class = fixation>+</div></div>,,practice_fixation,500.0,,practice,0.0,500.0,,,,,,,,,,,,,,,,,,,
13,,poldracklab-stop-signal,13,13583,0.0-2.0-10.0,371.0,<div class = centerbox><div class = cue-text><img class = center src='/static/experiments/stop_signal_rdoc/images/square.png'></img></div></div>,.,practice_trial,1500.0,,practice,0.0,1000.0,False,<img class = center src='/static/experiments/stop_signal_rdoc/images/stopSignal.png'></img>,stop,500.0,300.0,"[',', '.']",,square,,3.0,stop,0.0,0,,,,,,
14,,html-keyboard-response,14,14086,0.0-2.0-11.0,,"<div class = fb_box><div class = center-text><font size = 20>There was a star</font></div></div>
  <div class=""prompt_box"">
    <p class=""center-block-text"" style=""font-size:16px; line-height:80%;"">circle: index finger</p>
    <p class=""center-block-text"" style=""font-size:16px; line-height:80%;"">square: middle finger</p>
    <p class=""center-block-text"" style=""font-size:16px; line-height:80%;"">Do not respond if a star appears.</p>
  </div>
",,practice_feedback,500.0,,practice,0.0,500.0,,,,,,,,,,,,,,,,,,,
15,,html-keyboard-response,15,14245,0.0-2.0-12.0,,<div class = centerbox><div class = fixation>+</div></div>,,practice_ITI,153.7314391710344,,practice,0.0,153.7314391710344,,,,,,,,,,,,,,"{'min': 0, 'max': 5, 'mean': 0.5}",,,,,
16,,html-keyboard-response,16,14750,0.0-2.0-13.0,,<div class = centerbox><div class = fixation>+</div></div>,,practice_fixation,500.0,,practice,0.0,500.0,,,,,,,,,,,,,,,,,,,
17,,poldracklab-stop-signal,17,16254,0.0-2.0-14.0,521.0,<div class = centerbox><div class = cue-text><img class = center src='/static/experiments/stop_signal_rdoc/images/circle.png'></img></div></div>,",",practice_trial,1500.0,,practice,0.0,1000.0,False,<img class = center src='/static/experiments/stop_signal_rdoc/images/stopSignal.png'></img>,go,500.0,250.0,"[',', '.']",",",circle,",",4.0,go,,1,,1.0,,,,
18,,html-keyboard-response,18,16759,0.0-2.0-15.0,,"<div class = fb_box><div class = center-text><font size = 20>Correct!</font></div></div>
  <div class=""prompt_box"">
    <p class=""center-block-text"" style=""font-size:16px; line-height:80%;"">circle: index finger</p>
    <p class=""center-block-text"" style=""font-size:16px; line-height:80%;"">square: middle finger</p>
    <p class=""center-block-text"" style=""font-size:16px; line-height:80%;"">Do not respond if a star appears.</p>
  </div>
",,practice_feedback,500.0,,practice,0.0,500.0,,,,,,,,,,,,,,,,,,,
19,,html-keyboard-response,19,17317,0.0-2.0-16.0,,<div class = centerbox><div class = fixation>+</div></div>,,practice_ITI,553.8778991286883,,practice,0.0,553.8778991286883,,,,,,,,,,,,,,"{'min': 0, 'max': 5, 'mean': 0.5}",,,,,
20,,html-keyboard-response,20,17822,0.0-2.0-17.0,,<div class = centerbox><div class = fixation>+</div></div>,,practice_fixation,500.0,,practice,0.0,500.0,,,,,,,,,,,,,,,,,,,
21,,poldracklab-stop-signal,21,19327,0.0-2.0-18.0,632.0,<div class = centerbox><div class = cue-text><img class = center src='/static/experiments/stop_signal_rdoc/images/square.png'></img></div></div>,.,practice_trial,1500.0,,practice,0.0,1000.0,False,<img class = center src='/static/experiments/stop_signal_rdoc/images/stopSignal.png'></img>,go,500.0,250.0,"[',', '.']",.,square,.,5.0,go,,1,,1.0,,,,
22,,html-keyboard-response,22,19833,0.0-2.0-19.0,,"<div class = fb_box><div class = center-text><font size = 20>Correct!</font></div></div>
  <div class=""prompt_box"">
    <p class=""center-block-text"" style=""font-size:16px; line-height:80%;"">circle: index finger</p>
    <p class=""center-block-text"" style=""font-size:16px; line-height:80%;"">square: middle finger</p>
    <p class=""center-block-text"" style=""font-size:16px; line-height:80%;"">Do not respond if a star appears.</p>
  </div>
",,practice_feedback,500.0,,practice,0.0,500.0,,,,,,,,,,,,,,,,,,,
23,,html-keyboard-response,23,19938,0.0-2.0-20.0,,<div class = centerbox><div class = fixation>+</div></div>,,practice_ITI,102.85174386771052,,practice,0.0,102.85174386771052,,,,,,,,,,,,,,"{'min': 0, 'max': 5, 'mean': 0.5}",,,,,
24,,html-keyboard-response,24,20441,0.0-2.0-21.0,,<div class = centerbox><div class = fixation>+</div></div>,,practice_fixation,500.0,,practice,0.0,500.0,,,,,,,,,,,,,,,,,,,
25,,poldracklab-stop-signal,25,21944,0.0-2.0-22.0,645.0,<div class = centerbox><div class = cue-text><img class = center src='/static/experiments/stop_signal_rdoc/images/square.png'></img></div></div>,.,practice_trial,1500.0,,practice,0.0,1000.0,False,<img class = center src='/static/experiments/stop_signal_rdoc/images/stopSignal.png'></img>,go,500.0,250.0,"[',', '.']",.,square,.,6.0,go,,1,,1.0,,,,
26,,html-keyboard-response,26,22450,0.0-2.0-23.0,,"<div class = fb_box><div class = center-text><font size = 20>Correct!</font></div></div>
  <div class=""prompt_box"">
    <p class=""center-block-text"" style=""font-size:16px; line-height:80%;"">circle: index finger</p>
    <p class=""center-block-text"" style=""font-size:16px; line-height:80%;"">square: middle finger</p>
    <p class=""center-block-text"" style=""font-size:16px; line-height:80%;"">Do not respond if a star appears.</p>
  </div>
",,practice_feedback,500.0,,practice,0.0,500.0,,,,,,,,,,,,,,,,,,,
27,,html-keyboard-response,27,22677,0.0-2.0-24.0,,<div class = centerbox><div class = fixation>+</div></div>,,practice_ITI,224.97714106912088,,practice,0.0,224.97714106912088,,,,,,,,,,,,,,"{'min': 0, 'max': 5, 'mean': 0.5}",,,,,
28,,html-keyboard-response,28,23476,0.0-2.1-0.1,797.0,"<div class = bigbox><div class = picture_box><p class = block-text>
    <div class = centerbox><p class = block-text>Please take this time to read your feedback! This screen will advance automatically in 1 minute.</p>
        <p class=""block-text"">You have not been stopping your response when stars are present.</p>
        <p class=""block-text"">Please try your best to stop your response if you see a star.</p><p class=""block-text"">We are now going to repeat the practice round.</p><p class=""block-text"">Press <i>enter</i> to begin.</p></div>
    </font></p></div></div>",enter,practice_feedback,60000.0,,practice,1.0,,,,,,,,,,,,,,,,,,,,
29,,html-keyboard-response,29,23979,0.0-2.1-1.1,,<div class = centerbox><div class = fixation>+</div></div>,,practice_fixation,500.0,,practice,1.0,500.0,,,,,,,,,,,,,,,,,,,
30,,poldracklab-stop-signal,30,25483,0.0-2.1-2.1,431.0,<div class = centerbox><div class = cue-text><img class = center src='/static/experiments/stop_signal_rdoc/images/circle.png'></img></div></div>,",",practice_trial,1500.0,,practice,1.0,1000.0,False,<img class = center src='/static/experiments/stop_signal_rdoc/images/stopSignal.png'></img>,go,500.0,250.0,"[',', '.']",",",circle,",",1.0,go,,1,,1.0,,,,
31,,html-keyboard-response,31,25988,0.0-2.1-3.1,,"<div class = fb_box><div class = center-text><font size = 20>Correct!</font></div></div>
  <div class=""prompt_box"">
    <p class=""center-block-text"" style=""font-size:16px; line-height:80%;"">circle: index finger</p>
    <p class=""center-block-text"" style=""font-size:16px; line-height:80%;"">square: middle finger</p>
    <p class=""center-block-text"" style=""font-size:16px; line-height:80%;"">Do not respond if a star appears.</p>
  </div>
",,practice_feedback,500.0,,practice,1.0,500.0,,,,,,,,,,,,,,,,,,,
32,,html-keyboard-response,32,26037,0.0-2.1-4.1,,<div class = centerbox><div class = fixation>+</div></div>,,practice_ITI,42.06311273437879,,practice,1.0,42.06311273437879,,,,,,,,,,,,,,"{'min': 0, 'max': 5, 'mean': 0.5}",,,,,
33,,html-keyboard-response,33,26541,0.0-2.1-5.1,,<div class = centerbox><div class = fixation>+</div></div>,,practice_fixation,500.0,,practice,1.0,500.0,,,,,,,,,,,,,,,,,,,
34,,poldracklab-stop-signal,34,28048,0.0-2.1-6.1,638.0,<div class = centerbox><div class = cue-text><img class = center src='/static/experiments/stop_signal_rdoc/images/square.png'></img></div></div>,.,practice_trial,1500.0,,practice,1.0,1000.0,False,<img class = center src='/static/experiments/stop_signal_rdoc/images/stopSignal.png'></img>,go,500.0,250.0,"[',', '.']",.,square,.,2.0,go,,1,,1.0,,,,
35,,html-keyboard-response,35,28551,0.0-2.1-7.1,,"<div class = fb_box><div class = center-text><font size = 20>Correct!</font></div></div>
  <div class=""prompt_box"">
    <p class=""center-block-text"" style=""font-size:16px; line-height:80%;"">circle: index finger</p>
    <p class=""center-block-text"" style=""font-size:16px; line-height:80%;"">square: middle finger</p>
    <p class=""center-block-text"" style=""font-size:16px; line-height:80%;"">Do not respond if a star appears.</p>
  </div>
",,practice_feedback,500.0,,practice,1.0,500.0,,,,,,,,,,,,,,,,,,,
36,,html-keyboard-response,36,30122,0.0-2.1-8.1,,<div class = centerbox><div class = fixation>+</div></div>,,practice_ITI,1569.4878577546522,,practice,1.0,1569.4878577546522,,,,,,,,,,,,,,"{'min': 0, 'max': 5, 'mean': 0.5}",,,,,
37,,html-keyboard-response,37,30627,0.0-2.1-9.1,,<div class = centerbox><div class = fixation>+</div></div>,,practice_fixation,500.0,,practice,1.0,500.0,,,,,,,,,,,,,,,,,,,
38,,poldracklab-stop-signal,38,32129,0.0-2.1-10.1,,<div class = centerbox><div class = cue-text><img class = center src='/static/experiments/stop_signal_rdoc/images/circle.png'></img></div></div>,,practice_trial,1500.0,,practice,1.0,1000.0,False,<img class = center src='/static/experiments/stop_signal_rdoc/images/stopSignal.png'></img>,stop,500.0,250.0,"[',', '.']",,circle,,3.0,stop,1.0,1,,,,,,
39,,html-keyboard-response,39,32632,0.0-2.1-11.1,,"<div class = fb_box><div class = center-text><font size = 20>Correct!</font></div></div>
  <div class=""prompt_box"">
    <p class=""center-block-text"" style=""font-size:16px; line-height:80%;"">circle: index finger</p>
    <p class=""center-block-text"" style=""font-size:16px; line-height:80%;"">square: middle finger</p>
    <p class=""center-block-text"" style=""font-size:16px; line-height:80%;"">Do not respond if a star appears.</p>
  </div>
",,practice_feedback,500.0,,practice,1.0,500.0,,,,,,,,,,,,,,,,,,,
40,,html-keyboard-response,40,32638,0.0-2.1-12.1,,<div class = centerbox><div class = fixation>+</div></div>,,practice_ITI,2.544241947601797,,practice,1.0,2.544241947601797,,,,,,,,,,,,,,"{'min': 0, 'max': 5, 'mean': 0.5}",,,,,
41,,html-keyboard-response,41,33143,0.0-2.1-13.1,,<div class = centerbox><div class = fixation>+</div></div>,,practice_fixation,500.0,,practice,1.0,500.0,,,,,,,,,,,,,,,,,,,
42,,poldracklab-stop-signal,42,34648,0.0-2.1-14.1,431.0,<div class = centerbox><div class = cue-text><img class = center src='/static/experiments/stop_signal_rdoc/images/square.png'></img></div></div>,.,practice_trial,1500.0,,practice,1.0,1000.0,False,<img class = center src='/static/experiments/stop_signal_rdoc/images/stopSignal.png'></img>,go,500.0,300.0,"[',', '.']",.,square,.,4.0,go,,1,,1.0,,,,
43,,html-keyboard-response,43,35154,0.0-2.1-15.1,,"<div class = fb_box><div class = center-text><font size = 20>Correct!</font></div></div>
  <div class=""prompt_box"">
    <p class=""center-block-text"" style=""font-size:16px; line-height:80%;"">circle: index finger</p>
    <p class=""center-block-text"" style=""font-size:16px; line-height:80%;"">square: middle finger</p>
    <p class=""center-block-text"" style=""font-size:16px; line-height:80%;"">Do not respond if a star appears.</p>
  </div>
",,practice_feedback,500.0,,practice,1.0,500.0,,,,,,,,,,,,,,,,,,,
44,,html-keyboard-response,44,35387,0.0-2.1-16.1,,<div class = centerbox><div class = fixation>+</div></div>,,practice_ITI,227.85740499409985,,practice,1.0,227.85740499409985,,,,,,,,,,,,,,"{'min': 0, 'max': 5, 'mean': 0.5}",,,,,
45,,html-keyboard-response,45,35893,0.0-2.1-17.1,,<div class = centerbox><div class = fixation>+</div></div>,,practice_fixation,500.0,,practice,1.0,500.0,,,,,,,,,,,,,,,,,,,
46,,poldracklab-stop-signal,46,37396,0.0-2.1-18.1,634.0,<div class = centerbox><div class = cue-text><img class = center src='/static/experiments/stop_signal_rdoc/images/circle.png'></img></div></div>,",",practice_trial,1500.0,,practice,1.0,1000.0,False,<img class = center src='/static/experiments/stop_signal_rdoc/images/stopSignal.png'></img>,go,500.0,300.0,"[',', '.']",",",circle,",",5.0,go,,1,,1.0,,,,
47,,html-keyboard-response,47,37898,0.0-2.1-19.1,,"<div class = fb_box><div class = center-text><font size = 20>Correct!</font></div></div>
  <div class=""prompt_box"">
    <p class=""center-block-text"" style=""font-size:16px; line-height:80%;"">circle: index finger</p>
    <p class=""center-block-text"" style=""font-size:16px; line-height:80%;"">square: middle finger</p>
    <p class=""center-block-text"" style=""font-size:16px; line-height:80%;"">Do not respond if a star appears.</p>
  </div>
",,practice_feedback,500.0,,practice,1.0,500.0,,,,,,,,,,,,,,,,,,,
48,,html-keyboard-response,48,37986,0.0-2.1-20.1,,<div class = centerbox><div class = fixation>+</div></div>,,practice_ITI,82.91150647706341,,practice,1.0,82.91150647706341,,,,,,,,,,,,,,"{'min': 0, 'max': 5, 'mean': 0.5}",,,,,
49,,html-keyboard-response,49,38492,0.0-2.1-21.1,,<div class = centerbox><div class = fixation>+</div></div>,,practice_fixation,500.0,,practice,1.0,500.0,,,,,,,,,,,,,,,,,,,
50,,poldracklab-stop-signal,50,39998,0.0-2.1-22.1,,<div class = centerbox><div class = cue-text><img class = center src='/static/experiments/stop_signal_rdoc/images/square.png'></img></div></div>,,practice_trial,1500.0,,practice,1.0,1000.0,False,<img class = center src='/static/experiments/stop_signal_rdoc/images/stopSignal.png'></img>,stop,500.0,300.0,"[',', '.']",,square,,6.0,stop,1.0,1,,,,,,
51,,html-keyboard-response,51,40503,0.0-2.1-23.1,,"<div class = fb_box><div class = center-text><font size = 20>Correct!</font></div></div>
  <div class=""prompt_box"">
    <p class=""center-block-text"" style=""font-size:16px; line-height:80%;"">circle: index finger</p>
    <p class=""center-block-text"" style=""font-size:16px; line-height:80%;"">square: middle finger</p>
    <p class=""center-block-text"" style=""font-size:16px; line-height:80%;"">Do not respond if a star appears.</p>
  </div>
",,practice_feedback,500.0,,practice,1.0,500.0,,,,,,,,,,,,,,,,,,,
52,,html-keyboard-response,52,41541,0.0-2.1-24.1,,<div class = centerbox><div class = fixation>+</div></div>,,practice_ITI,1034.0522669231748,,practice,1.0,1034.0522669231748,,,,,,,,,,,,,,"{'min': 0, 'max': 5, 'mean': 0.5}",,,,,
53,,html-keyboard-response,53,42227,0.0-2.2-0.2,685.0,"<div class = bigbox><div class = picture_box><p class = block-text>
    <div class = centerbox><p class = block-text>Please take this time to read your feedback! This screen will advance automatically in 1 minute.</p>
        <p class=""block-text"">You have been responding too slowly. Do not wait for the star. Respond as quickly and accurately to each stimulus that requires a response.</p><p class=""block-text"">We are now going to repeat the practice round.</p><p class=""block-text"">Press <i>enter</i> to begin.</p></div>
    </font></p></div></div>",enter,practice_feedback,60000.0,,practice,2.0,,,,,,,,,,,,,,,,,,,,
54,,html-keyboard-response,54,42730,0.0-2.2-1.2,,<div class = centerbox><div class = fixation>+</div></div>,,practice_fixation,500.0,,practice,2.0,500.0,,,,,,,,,,,,,,,,,,,
55,,poldracklab-stop-signal,55,44234,0.0-2.2-2.2,,<div class = centerbox><div class = cue-text><img class = center src='/static/experiments/stop_signal_rdoc/images/circle.png'></img></div></div>,,practice_trial,1500.0,,practice,2.0,1000.0,False,<img class = center src='/static/experiments/stop_signal_rdoc/images/stopSignal.png'></img>,stop,500.0,350.0,"[',', '.']",,circle,,1.0,stop,1.0,1,,,,,,
56,,html-keyboard-response,56,44741,0.0-2.2-3.2,,"<div class = fb_box><div class = center-text><font size = 20>Correct!</font></div></div>
  <div class=""prompt_box"">
    <p class=""center-block-text"" style=""font-size:16px; line-height:80%;"">circle: index finger</p>
    <p class=""center-block-text"" style=""font-size:16px; line-height:80%;"">square: middle finger</p>
    <p class=""center-block-text"" style=""font-size:16px; line-height:80%;"">Do not respond if a star appears.</p>
  </div>
",,practice_feedback,500.0,,practice,2.0,500.0,,,,,,,,,,,,,,,,,,,
57,,html-keyboard-response,57,45191,0.0-2.2-4.2,,<div class = centerbox><div class = fixation>+</div></div>,,practice_ITI,444.83293067130836,,practice,2.0,444.83293067130836,,,,,,,,,,,,,,"{'min': 0, 'max': 5, 'mean': 0.5}",,,,,
58,,html-keyboard-response,58,45694,0.0-2.2-5.2,,<div class = centerbox><div class = fixation>+</div></div>,,practice_fixation,500.0,,practice,2.0,500.0,,,,,,,,,,,,,,,,,,,
59,,poldracklab-stop-signal,59,47201,0.0-2.2-6.2,357.0,<div class = centerbox><div class = cue-text><img class = center src='/static/experiments/stop_signal_rdoc/images/square.png'></img></div></div>,.,practice_trial,1500.0,,practice,2.0,1000.0,False,<img class = center src='/static/experiments/stop_signal_rdoc/images/stopSignal.png'></img>,stop,500.0,400.0,"[',', '.']",,square,,2.0,stop,0.0,0,,,,,,
60,,html-keyboard-response,60,47703,0.0-2.2-7.2,,"<div class = fb_box><div class = center-text><font size = 20>There was a star</font></div></div>
  <div class=""prompt_box"">
    <p class=""center-block-text"" style=""font-size:16px; line-height:80%;"">circle: index finger</p>
    <p class=""center-block-text"" style=""font-size:16px; line-height:80%;"">square: middle finger</p>
    <p class=""center-block-text"" style=""font-size:16px; line-height:80%;"">Do not respond if a star appears.</p>
  </div>
",,practice_feedback,500.0,,practice,2.0,500.0,,,,,,,,,,,,,,,,,,,
61,,html-keyboard-response,61,49123,0.0-2.2-8.2,,<div class = centerbox><div class = fixation>+</div></div>,,practice_ITI,1413.559982287396,,practice,2.0,1413.559982287396,,,,,,,,,,,,,,"{'min': 0, 'max': 5, 'mean': 0.5}",,,,,
62,,html-keyboard-response,62,49629,0.0-2.2-9.2,,<div class = centerbox><div class = fixation>+</div></div>,,practice_fixation,500.0,,practice,2.0,500.0,,,,,,,,,,,,,,,,,,,
63,,poldracklab-stop-signal,63,51132,0.0-2.2-10.2,480.0,<div class = centerbox><div class = cue-text><img class = center src='/static/experiments/stop_signal_rdoc/images/square.png'></img></div></div>,.,practice_trial,1500.0,,practice,2.0,1000.0,False,<img class = center src='/static/experiments/stop_signal_rdoc/images/stopSignal.png'></img>,go,500.0,350.0,"[',', '.']",.,square,.,3.0,go,,1,,1.0,,,,
64,,html-keyboard-response,64,51637,0.0-2.2-11.2,,"<div class = fb_box><div class = center-text><font size = 20>Correct!</font></div></div>
  <div class=""prompt_box"">
    <p class=""center-block-text"" style=""font-size:16px; line-height:80%;"">circle: index finger</p>
    <p class=""center-block-text"" style=""font-size:16px; line-height:80%;"">square: middle finger</p>
    <p class=""center-block-text"" style=""font-size:16px; line-height:80%;"">Do not respond if a star appears.</p>
  </div>
",,practice_feedback,500.0,,practice,2.0,500.0,,,,,,,,,,,,,,,,,,,
65,,html-keyboard-response,65,51951,0.0-2.2-12.2,,<div class = centerbox><div class = fixation>+</div></div>,,practice_ITI,308.24711594622715,,practice,2.0,308.24711594622715,,,,,,,,,,,,,,"{'min': 0, 'max': 5, 'mean': 0.5}",,,,,
66,,html-keyboard-response,66,52455,0.0-2.2-13.2,,<div class = centerbox><div class = fixation>+</div></div>,,practice_fixation,500.0,,practice,2.0,500.0,,,,,,,,,,,,,,,,,,,
67,,poldracklab-stop-signal,67,53960,0.0-2.2-14.2,497.0,<div class = centerbox><div class = cue-text><img class = center src='/static/experiments/stop_signal_rdoc/images/square.png'></img></div></div>,.,practice_trial,1500.0,,practice,2.0,1000.0,False,<img class = center src='/static/experiments/stop_signal_rdoc/images/stopSignal.png'></img>,go,500.0,350.0,"[',', '.']",.,square,.,4.0,go,,1,,1.0,,,,
68,,html-keyboard-response,68,54466,0.0-2.2-15.2,,"<div class = fb_box><div class = center-text><font size = 20>Correct!</font></div></div>
  <div class=""prompt_box"">
    <p class=""center-block-text"" style=""font-size:16px; line-height:80%;"">circle: index finger</p>
    <p class=""center-block-text"" style=""font-size:16px; line-height:80%;"">square: middle finger</p>
    <p class=""center-block-text"" style=""font-size:16px; line-height:80%;"">Do not respond if a star appears.</p>
  </div>
",,practice_feedback,500.0,,practice,2.0,500.0,,,,,,,,,,,,,,,,,,,
69,,html-keyboard-response,69,54515,0.0-2.2-16.2,,<div class = centerbox><div class = fixation>+</div></div>,,practice_ITI,46.88731239017925,,practice,2.0,46.88731239017925,,,,,,,,,,,,,,"{'min': 0, 'max': 5, 'mean': 0.5}",,,,,
70,,html-keyboard-response,70,55018,0.0-2.2-17.2,,<div class = centerbox><div class = fixation>+</div></div>,,practice_fixation,500.0,,practice,2.0,500.0,,,,,,,,,,,,,,,,,,,
71,,poldracklab-stop-signal,71,56525,0.0-2.2-18.2,488.0,<div class = centerbox><div class = cue-text><img class = center src='/static/experiments/stop_signal_rdoc/images/circle.png'></img></div></div>,",",practice_trial,1500.0,,practice,2.0,1000.0,False,<img class = center src='/static/experiments/stop_signal_rdoc/images/stopSignal.png'></img>,go,500.0,350.0,"[',', '.']",",",circle,",",5.0,go,,1,,1.0,,,,
72,,html-keyboard-response,72,57032,0.0-2.2-19.2,,"<div class = fb_box><div class = center-text><font size = 20>Correct!</font></div></div>
  <div class=""prompt_box"">
    <p class=""center-block-text"" style=""font-size:16px; line-height:80%;"">circle: index finger</p>
    <p class=""center-block-text"" style=""font-size:16px; line-height:80%;"">square: middle finger</p>
    <p class=""center-block-text"" style=""font-size:16px; line-height:80%;"">Do not respond if a star appears.</p>
  </div>
",,practice_feedback,500.0,,practice,2.0,500.0,,,,,,,,,,,,,,,,,,,
73,,html-keyboard-response,73,58224,0.0-2.2-20.2,,<div class = centerbox><div class = fixation>+</div></div>,,practice_ITI,1189.8731819882985,,practice,2.0,1189.8731819882985,,,,,,,,,,,,,,"{'min': 0, 'max': 5, 'mean': 0.5}",,,,,
74,,html-keyboard-response,74,58729,0.0-2.2-21.2,,<div class = centerbox><div class = fixation>+</div></div>,,practice_fixation,500.0,,practice,2.0,500.0,,,,,,,,,,,,,,,,,,,
75,,poldracklab-stop-signal,75,60233,0.0-2.2-22.2,470.0,<div class = centerbox><div class = cue-text><img class = center src='/static/experiments/stop_signal_rdoc/images/circle.png'></img></div></div>,",",practice_trial,1500.0,,practice,2.0,1000.0,False,<img class = center src='/static/experiments/stop_signal_rdoc/images/stopSignal.png'></img>,go,500.0,350.0,"[',', '.']",",",circle,",",6.0,go,,1,,1.0,,,,
76,,html-keyboard-response,76,60739,0.0-2.2-23.2,,"<div class = fb_box><div class = center-text><font size = 20>Correct!</font></div></div>
  <div class=""prompt_box"">
    <p class=""center-block-text"" style=""font-size:16px; line-height:80%;"">circle: index finger</p>
    <p class=""center-block-text"" style=""font-size:16px; line-height:80%;"">square: middle finger</p>
    <p class=""center-block-text"" style=""font-size:16px; line-height:80%;"">Do not respond if a star appears.</p>
  </div>
",,practice_feedback,500.0,,practice,2.0,500.0,,,,,,,,,,,,,,,,,,,
77,,html-keyboard-response,77,60873,0.0-2.2-24.2,,<div class = centerbox><div class = fixation>+</div></div>,,practice_ITI,130.3709037364107,,practice,2.0,130.3709037364107,,,,,,,,,,,,,,"{'min': 0, 'max': 5, 'mean': 0.5}",,,,,
78,,html-keyboard-response,78,61655,0.0-3.0-0.0,781.0,"<div class = bigbox><div class = picture_box><p class = block-text>
    
      <div class=""centerbox"">
        <p class=""block-text"">We will now begin the test portion.</p>
        <p class=""block-text"">Keep your <b>index finger</b> on the <b>comma key (,)</b> and your <b>middle finger</b> on the <b>period key (.)</b></p>
        <p class=""block-text"">Press <i>enter</i> to continue.</p>
      </div>
    </font></p></div></div>",enter,test_feedback,60000.0,,test,0.0,,,,,,,,,,,,,,,,,,,,
79,,html-keyboard-response,79,62644,0.0-3.0-1.0-0.0,988.0,,q,test_attention_check,,,test,0.0,,,,,,,,,,,,,,True,,,<p class='block-text'>Press the Q key</p> <div class=block-text>This screen will advance automatically in 1 minute.</div>,81.0,,
80,,html-keyboard-response,80,63146,0.0-3.0-2.0,,<div class = centerbox><div class = fixation>+</div></div>,,test_fixation,500.0,,test,0.0,500.0,,,,,,,,,,,,,,,,,,,
81,,poldracklab-stop-signal,81,64651,0.0-3.0-3.0,519.0,<div class = centerbox><div class = cue-text><img class = center src='/static/experiments/stop_signal_rdoc/images/circle.png'></img></div></div>,",",test_trial,1500.0,,test,0.0,1000.0,False,<img class = center src='/static/experiments/stop_signal_rdoc/images/stopSignal.png'></img>,go,500.0,350.0,"[',', '.']",,circle,",",1.0,go,,0,,1.0,,,,
82,,html-keyboard-response,82,66402,0.0-3.0-4.0,,<div class = centerbox><div class = fixation>+</div></div>,,test_ITI,1745.9606199332793,,test,0.0,1745.9606199332793,,,,,,,,,,,,,,"{'min': 0, 'max': 5, 'mean': 0.5}",,,,,
83,,html-keyboard-response,83,66909,0.0-3.0-5.0,,<div class = centerbox><div class = fixation>+</div></div>,,test_fixation,500.0,,test,0.0,500.0,,,,,,,,,,,,,,,,,,,
84,,poldracklab-stop-signal,84,68416,0.0-3.0-6.0,,<div class = centerbox><div class = cue-text><img class = center src='/static/experiments/stop_signal_rdoc/images/circle.png'></img></div></div>,,test_trial,1500.0,,test,0.0,1000.0,False,<img class = center src='/static/experiments/stop_signal_rdoc/images/stopSignal.png'></img>,stop,500.0,350.0,"[',', '.']",,circle,,2.0,stop,1.0,1,,,,,,
85,,html-keyboard-response,85,70090,0.0-3.0-7.0,,<div class = centerbox><div class = fixation>+</div></div>,,test_ITI,1668.1107211139542,,test,0.0,1668.1107211139542,,,,,,,,,,,,,,"{'min': 0, 'max': 5, 'mean': 0.5}",,,,,
86,,html-keyboard-response,86,70597,0.0-3.0-8.0,,<div class = centerbox><div class = fixation>+</div></div>,,test_fixation,500.0,,test,0.0,500.0,,,,,,,,,,,,,,,,,,,
87,,poldracklab-stop-signal,87,72100,0.0-3.0-9.0,,<div class = centerbox><div class = cue-text><img class = center src='/static/experiments/stop_signal_rdoc/images/square.png'></img></div></div>,,test_trial,1500.0,,test,0.0,1000.0,False,<img class = center src='/static/experiments/stop_signal_rdoc/images/stopSignal.png'></img>,go,500.0,400.0,"[',', '.']",,square,.,3.0,go,,1,,0.0,,,,
88,,html-keyboard-response,88,72465,0.0-3.0-10.0,,<div class = centerbox><div class = fixation>+</div></div>,,test_ITI,364.24697670685043,,test,0.0,364.24697670685043,,,,,,,,,,,,,,"{'min': 0, 'max': 5, 'mean': 0.5}",,,,,
89,,html-keyboard-response,89,72971,0.0-3.0-11.0,,<div class = centerbox><div class = fixation>+</div></div>,,test_fixation,500.0,,test,0.0,500.0,,,,,,,,,,,,,,,,,,,
90,,poldracklab-stop-signal,90,74478,0.0-3.0-12.0,,<div class = centerbox><div class = cue-text><img class = center src='/static/experiments/stop_signal_rdoc/images/square.png'></img></div></div>,,test_trial,1500.0,,test,0.0,1000.0,False,<img class = center src='/static/experiments/stop_signal_rdoc/images/stopSignal.png'></img>,go,500.0,400.0,"[',', '.']",,square,.,4.0,go,,1,,0.0,,,,
91,,html-keyboard-response,91,74716,0.0-3.0-13.0,,<div class = centerbox><div class = fixation>+</div></div>,,test_ITI,231.0839816785274,,test,0.0,231.0839816785274,,,,,,,,,,,,,,"{'min': 0, 'max': 5, 'mean': 0.5}",,,,,
92,,html-keyboard-response,92,75223,0.0-3.0-14.0,,<div class = centerbox><div class = fixation>+</div></div>,,test_fixation,500.0,,test,0.0,500.0,,,,,,,,,,,,,,,,,,,
93,,poldracklab-stop-signal,93,76726,0.0-3.0-15.0,,<div class = centerbox><div class = cue-text><img class = center src='/static/experiments/stop_signal_rdoc/images/circle.png'></img></div></div>,,test_trial,1500.0,,test,0.0,1000.0,False,<img class = center src='/static/experiments/stop_signal_rdoc/images/stopSignal.png'></img>,go,500.0,400.0,"[',', '.']",,circle,",",5.0,go,,1,,0.0,,,,
94,,html-keyboard-response,94,76808,0.0-3.0-16.0,,<div class = centerbox><div class = fixation>+</div></div>,,test_ITI,75.20514823650393,,test,0.0,75.20514823650393,,,,,,,,,,,,,,"{'min': 0, 'max': 5, 'mean': 0.5}",,,,,
95,,html-keyboard-response,95,77314,0.0-3.0-17.0,,<div class = centerbox><div class = fixation>+</div></div>,,test_fixation,500.0,,test,0.0,500.0,,,,,,,,,,,,,,,,,,,
96,,poldracklab-stop-signal,96,78820,0.0-3.0-18.0,,<div class = centerbox><div class = cue-text><img class = center src='/static/experiments/stop_signal_rdoc/images/square.png'></img></div></div>,,test_trial,1500.0,,test,0.0,1000.0,False,<img class = center src='/static/experiments/stop_signal_rdoc/images/stopSignal.png'></img>,stop,500.0,400.0,"[',', '.']",,square,,6.0,stop,1.0,1,,,,,,
97,,html-keyboard-response,97,78848,0.0-3.0-19.0,,<div class = centerbox><div class = fixation>+</div></div>,,test_ITI,25.187215149759258,,test,0.0,25.187215149759258,,,,,,,,,,,,,,"{'min': 0, 'max': 5, 'mean': 0.5}",,,,,
98,,html-keyboard-response,98,79354,0.0-3.0-20.0,,<div class = centerbox><div class = fixation>+</div></div>,,test_fixation,500.0,,test,0.0,500.0,,,,,,,,,,,,,,,,,,,
99,,poldracklab-stop-signal,99,80861,0.0-3.0-21.0,,<div class = centerbox><div class = cue-text><img class = center src='/static/experiments/stop_signal_rdoc/images/circle.png'></img></div></div>,,test_trial,1500.0,,test,0.0,1000.0,False,<img class = center src='/static/experiments/stop_signal_rdoc/images/stopSignal.png'></img>,go,500.0,450.0,"[',', '.']",,circle,",",7.0,go,,1,,0.0,,,,
100,,html-keyboard-response,100,80923,0.0-3.0-22.0,,<div class = centerbox><div class = fixation>+</div></div>,,test_ITI,58.849318044170225,,test,0.0,58.849318044170225,,,,,,,,,,,,,,"{'min': 0, 'max': 5, 'mean': 0.5}",,,,,
101,,html-keyboard-response,101,81425,0.0-3.0-23.0,,<div class = centerbox><div class = fixation>+</div></div>,,test_fixation,500.0,,test,0.0,500.0,,,,,,,,,,,,,,,,,,,
102,,poldracklab-stop-signal,102,82928,0.0-3.0-24.0,,<div class = centerbox><div class = cue-text><img class = center src='/static/experiments/stop_signal_rdoc/images/square.png'></img></div></div>,,test_trial,1500.0,,test,0.0,1000.0,False,<img class = center src='/static/experiments/stop_signal_rdoc/images/stopSignal.png'></img>,go,500.0,450.0,"[',', '.']",,square,.,8.0,go,,1,,0.0,,,,
103,,html-keyboard-response,103,83260,0.0-3.0-25.0,,<div class = centerbox><div class = fixation>+</div></div>,,test_ITI,325.26104914598676,,test,0.0,325.26104914598676,,,,,,,,,,,,,,"{'min': 0, 'max': 5, 'mean': 0.5}",,,,,
104,,html-keyboard-response,104,83767,0.0-3.0-26.0,,<div class = centerbox><div class = fixation>+</div></div>,,test_fixation,500.0,,test,0.0,500.0,,,,,,,,,,,,,,,,,,,
105,,poldracklab-stop-signal,105,85269,0.0-3.0-27.0,,<div class = centerbox><div class = cue-text><img class = center src='/static/experiments/stop_signal_rdoc/images/circle.png'></img></div></div>,,test_trial,1500.0,,test,0.0,1000.0,False,<img class = center src='/static/experiments/stop_signal_rdoc/images/stopSignal.png'></img>,go,500.0,450.0,"[',', '.']",,circle,",",9.0,go,,1,,0.0,,,,
106,,html-keyboard-response,106,85620,0.0-3.0-28.0,,<div class = centerbox><div class = fixation>+</div></div>,,test_ITI,349.21183323674046,,test,0.0,349.21183323674046,,,,,,,,,,,,,,"{'min': 0, 'max': 5, 'mean': 0.5}",,,,,
107,,html-keyboard-response,107,86125,0.0-3.0-29.0,,<div class = centerbox><div class = fixation>+</div></div>,,test_fixation,500.0,,test,0.0,500.0,,,,,,,,,,,,,,,,,,,
108,,poldracklab-stop-signal,108,87630,0.0-3.0-30.0,,<div class = centerbox><div class = cue-text><img class = center src='/static/experiments/stop_signal_rdoc/images/square.png'></img></div></div>,,test_trial,1500.0,,test,0.0,1000.0,False,<img class = center src='/static/experiments/stop_signal_rdoc/images/stopSignal.png'></img>,stop,500.0,450.0,"[',', '.']",,square,,10.0,stop,1.0,1,,,,,,
109,,html-keyboard-response,109,87676,0.0-3.0-31.0,,<div class = centerbox><div class = fixation>+</div></div>,,test_ITI,43.79696496897862,,test,0.0,43.79696496897862,,,,,,,,,,,,,,"{'min': 0, 'max': 5, 'mean': 0.5}",,,,,
110,,html-keyboard-response,110,88183,0.0-3.0-32.0,,<div class = centerbox><div class = fixation>+</div></div>,,test_fixation,500.0,,test,0.0,500.0,,,,,,,,,,,,,,,,,,,
111,,poldracklab-stop-signal,111,89688,0.0-3.0-33.0,,<div class = centerbox><div class = cue-text><img class = center src='/static/experiments/stop_signal_rdoc/images/circle.png'></img></div></div>,,test_trial,1500.0,,test,0.0,1000.0,False,<img class = center src='/static/experiments/stop_signal_rdoc/images/stopSignal.png'></img>,stop,500.0,500.0,"[',', '.']",,circle,,11.0,stop,1.0,1,,,,,,
112,,html-keyboard-response,112,89874,0.0-3.0-34.0,,<div class = centerbox><div class = fixation>+</div></div>,,test_ITI,179.65283984090584,,test,0.0,179.65283984090584,,,,,,,,,,,,,,"{'min': 0, 'max': 5, 'mean': 0.5}",,,,,
113,,html-keyboard-response,113,90380,0.0-3.0-35.0,,<div class = centerbox><div class = fixation>+</div></div>,,test_fixation,500.0,,test,0.0,500.0,,,,,,,,,,,,,,,,,,,
114,,poldracklab-stop-signal,114,91887,0.0-3.0-36.0,,<div class = centerbox><div class = cue-text><img class = center src='/static/experiments/stop_signal_rdoc/images/circle.png'></img></div></div>,,test_trial,1500.0,,test,0.0,1000.0,False,<img class = center src='/static/experiments/stop_signal_rdoc/images/stopSignal.png'></img>,stop,500.0,550.0,"[',', '.']",,circle,,12.0,stop,1.0,1,,,,,,
115,,html-keyboard-response,115,92413,0.0-3.0-37.0,,<div class = centerbox><div class = fixation>+</div></div>,,test_ITI,521.6954157270111,,test,0.0,521.6954157270111,,,,,,,,,,,,,,"{'min': 0, 'max': 5, 'mean': 0.5}",,,,,
116,,html-keyboard-response,116,92918,0.0-3.0-38.0,,<div class = centerbox><div class = fixation>+</div></div>,,test_fixation,500.0,,test,0.0,500.0,,,,,,,,,,,,,,,,,,,
117,,poldracklab-stop-signal,117,94422,0.0-3.0-39.0,,<div class = centerbox><div class = cue-text><img class = center src='/static/experiments/stop_signal_rdoc/images/square.png'></img></div></div>,,test_trial,1500.0,,test,0.0,1000.0,False,<img class = center src='/static/experiments/stop_signal_rdoc/images/stopSignal.png'></img>,stop,500.0,600.0,"[',', '.']",,square,,13.0,stop,1.0,1,,,,,,
118,,html-keyboard-response,118,94449,0.0-3.0-40.0,,<div class = centerbox><div class = fixation>+</div></div>,,test_ITI,24.29867121386377,,test,0.0,24.29867121386377,,,,,,,,,,,,,,"{'min': 0, 'max': 5, 'mean': 0.5}",,,,,
119,,html-keyboard-response,119,94955,0.0-3.0-41.0,,<div class = centerbox><div class = fixation>+</div></div>,,test_fixation,500.0,,test,0.0,500.0,,,,,,,,,,,,,,,,,,,
120,,poldracklab-stop-signal,120,96463,0.0-3.0-42.0,,<div class = centerbox><div class = cue-text><img class = center src='/static/experiments/stop_signal_rdoc/images/square.png'></img></div></div>,,test_trial,1500.0,,test,0.0,1000.0,False,<img class = center src='/static/experiments/stop_signal_rdoc/images/stopSignal.png'></img>,stop,500.0,650.0,"[',', '.']",,square,,14.0,stop,1.0,1,,,,,,
121,,html-keyboard-response,121,97325,0.0-3.0-43.0,,<div class = centerbox><div class = fixation>+</div></div>,,test_ITI,860.9529661891577,,test,0.0,860.9529661891577,,,,,,,,,,,,,,"{'min': 0, 'max': 5, 'mean': 0.5}",,,,,
122,,html-keyboard-response,122,97830,0.0-3.0-44.0,,<div class = centerbox><div class = fixation>+</div></div>,,test_fixation,500.0,,test,0.0,500.0,,,,,,,,,,,,,,,,,,,
123,,poldracklab-stop-signal,123,99333,0.0-3.0-45.0,,<div class = centerbox><div class = cue-text><img class = center src='/static/experiments/stop_signal_rdoc/images/circle.png'></img></div></div>,,test_trial,1500.0,,test,0.0,1000.0,False,<img class = center src='/static/experiments/stop_signal_rdoc/images/stopSignal.png'></img>,go,500.0,700.0,"[',', '.']",,circle,",",15.0,go,,1,,0.0,,,,
124,,html-keyboard-response,124,99439,0.0-3.0-46.0,,<div class = centerbox><div class = fixation>+</div></div>,,test_ITI,103.1608301582219,,test,0.0,103.1608301582219,,,,,,,,,,,,,,"{'min': 0, 'max': 5, 'mean': 0.5}",,,,,
125,,html-keyboard-response,125,99946,0.0-3.0-47.0,,<div class = centerbox><div class = fixation>+</div></div>,,test_fixation,500.0,,test,0.0,500.0,,,,,,,,,,,,,,,,,,,
126,,poldracklab-stop-signal,126,101452,0.0-3.0-48.0,,<div class = centerbox><div class = cue-text><img class = center src='/static/experiments/stop_signal_rdoc/images/circle.png'></img></div></div>,,test_trial,1500.0,,test,0.0,1000.0,False,<img class = center src='/static/experiments/stop_signal_rdoc/images/stopSignal.png'></img>,go,500.0,700.0,"[',', '.']",,circle,",",16.0,go,,1,,0.0,,,,
127,,html-keyboard-response,127,103607,0.0-3.0-49.0,,<div class = centerbox><div class = fixation>+</div></div>,,test_ITI,2152.520861277887,,test,0.0,2152.520861277887,,,,,,,,,,,,,,"{'min': 0, 'max': 5, 'mean': 0.5}",,,,,
128,,html-keyboard-response,128,104111,0.0-3.0-50.0,,<div class = centerbox><div class = fixation>+</div></div>,,test_fixation,500.0,,test,0.0,500.0,,,,,,,,,,,,,,,,,,,
129,,poldracklab-stop-signal,129,105618,0.0-3.0-51.0,,<div class = centerbox><div class = cue-text><img class = center src='/static/experiments/stop_signal_rdoc/images/square.png'></img></div></div>,,test_trial,1500.0,,test,0.0,1000.0,False,<img class = center src='/static/experiments/stop_signal_rdoc/images/stopSignal.png'></img>,go,500.0,700.0,"[',', '.']",,square,.,17.0,go,,1,,0.0,,,,
130,,html-keyboard-response,130,105983,0.0-3.0-52.0,,<div class = centerbox><div class = fixation>+</div></div>,,test_ITI,362.3251900421345,,test,0.0,362.3251900421345,,,,,,,,,,,,,,"{'min': 0, 'max': 5, 'mean': 0.5}",,,,,
131,,html-keyboard-response,131,106485,0.0-3.0-53.0,,<div class = centerbox><div class = fixation>+</div></div>,,test_fixation,500.0,,test,0.0,500.0,,,,,,,,,,,,,,,,,,,
132,,poldracklab-stop-signal,132,107991,0.0-3.0-54.0,,<div class = centerbox><div class = cue-text><img class = center src='/static/experiments/stop_signal_rdoc/images/square.png'></img></div></div>,,test_trial,1500.0,,test,0.0,1000.0,False,<img class = center src='/static/experiments/stop_signal_rdoc/images/stopSignal.png'></img>,go,500.0,700.0,"[',', '.']",,square,.,18.0,go,,1,,0.0,,,,
133,,html-keyboard-response,133,108244,0.0-3.0-55.0,,<div class = centerbox><div class = fixation>+</div></div>,,test_ITI,246.31400054798323,,test,0.0,246.31400054798323,,,,,,,,,,,,,,"{'min': 0, 'max': 5, 'mean': 0.5}",,,,,
134,,html-keyboard-response,134,108750,0.0-3.0-56.0,,<div class = centerbox><div class = fixation>+</div></div>,,test_fixation,500.0,,test,0.0,500.0,,,,,,,,,,,,,,,,,,,
135,,poldracklab-stop-signal,135,110255,0.0-3.0-57.0,,<div class = centerbox><div class = cue-text><img class = center src='/static/experiments/stop_signal_rdoc/images/circle.png'></img></div></div>,,test_trial,1500.0,,test,0.0,1000.0,False,<img class = center src='/static/experiments/stop_signal_rdoc/images/stopSignal.png'></img>,go,500.0,700.0,"[',', '.']",,circle,",",19.0,go,,1,,0.0,,,,
136,,html-keyboard-response,136,110345,0.0-3.0-58.0,,<div class = centerbox><div class = fixation>+</div></div>,,test_ITI,88.18940124115541,,test,0.0,88.18940124115541,,,,,,,,,,,,,,"{'min': 0, 'max': 5, 'mean': 0.5}",,,,,
137,,html-keyboard-response,137,110852,0.0-3.0-59.0,,<div class = centerbox><div class = fixation>+</div></div>,,test_fixation,500.0,,test,0.0,500.0,,,,,,,,,,,,,,,,,,,
138,,poldracklab-stop-signal,138,112355,0.0-3.0-60.0,,<div class = centerbox><div class = cue-text><img class = center src='/static/experiments/stop_signal_rdoc/images/square.png'></img></div></div>,,test_trial,1500.0,,test,0.0,1000.0,False,<img class = center src='/static/experiments/stop_signal_rdoc/images/stopSignal.png'></img>,stop,500.0,700.0,"[',', '.']",,square,,20.0,stop,1.0,1,,,,,,
139,,html-keyboard-response,139,113047,0.0-3.0-61.0,,<div class = centerbox><div class = fixation>+</div></div>,,test_ITI,686.6892883078683,,test,0.0,686.6892883078683,,,,,,,,,,,,,,"{'min': 0, 'max': 5, 'mean': 0.5}",,,,,
140,,html-keyboard-response,140,113549,0.0-3.0-62.0,,<div class = centerbox><div class = fixation>+</div></div>,,test_fixation,500.0,,test,0.0,500.0,,,,,,,,,,,,,,,,,,,
141,,poldracklab-stop-signal,141,115055,0.0-3.0-63.0,,<div class = centerbox><div class = cue-text><img class = center src='/static/experiments/stop_signal_rdoc/images/square.png'></img></div></div>,,test_trial,1500.0,,test,0.0,1000.0,False,<img class = center src='/static/experiments/stop_signal_rdoc/images/stopSignal.png'></img>,go,500.0,750.0,"[',', '.']",,square,.,21.0,go,,1,,0.0,,,,
142,,html-keyboard-response,142,116031,0.0-3.0-64.0,,<div class = centerbox><div class = fixation>+</div></div>,,test_ITI,970.4657612404062,,test,0.0,970.4657612404062,,,,,,,,,,,,,,"{'min': 0, 'max': 5, 'mean': 0.5}",,,,,
143,,html-keyboard-response,143,116537,0.0-3.0-65.0,,<div class = centerbox><div class = fixation>+</div></div>,,test_fixation,500.0,,test,0.0,500.0,,,,,,,,,,,,,,,,,,,
144,,poldracklab-stop-signal,144,118044,0.0-3.0-66.0,,<div class = centerbox><div class = cue-text><img class = center src='/static/experiments/stop_signal_rdoc/images/square.png'></img></div></div>,,test_trial,1500.0,,test,0.0,1000.0,False,<img class = center src='/static/experiments/stop_signal_rdoc/images/stopSignal.png'></img>,go,500.0,750.0,"[',', '.']",,square,.,22.0,go,,1,,0.0,,,,
145,,html-keyboard-response,145,118134,0.0-3.0-67.0,,<div class = centerbox><div class = fixation>+</div></div>,,test_ITI,84.99100828190619,,test,0.0,84.99100828190619,,,,,,,,,,,,,,"{'min': 0, 'max': 5, 'mean': 0.5}",,,,,
146,,html-keyboard-response,146,118639,0.0-3.0-68.0,,<div class = centerbox><div class = fixation>+</div></div>,,test_fixation,500.0,,test,0.0,500.0,,,,,,,,,,,,,,,,,,,
147,,poldracklab-stop-signal,147,120143,0.0-3.0-69.0,,<div class = centerbox><div class = cue-text><img class = center src='/static/experiments/stop_signal_rdoc/images/square.png'></img></div></div>,,test_trial,1500.0,,test,0.0,1000.0,False,<img class = center src='/static/experiments/stop_signal_rdoc/images/stopSignal.png'></img>,go,500.0,750.0,"[',', '.']",,square,.,23.0,go,,1,,0.0,,,,
148,,html-keyboard-response,148,120194,0.0-3.0-70.0,,<div class = centerbox><div class = fixation>+</div></div>,,test_ITI,45.49507573047263,,test,0.0,45.49507573047263,,,,,,,,,,,,,,"{'min': 0, 'max': 5, 'mean': 0.5}",,,,,
149,,html-keyboard-response,149,120700,0.0-3.0-71.0,,<div class = centerbox><div class = fixation>+</div></div>,,test_fixation,500.0,,test,0.0,500.0,,,,,,,,,,,,,,,,,,,
150,,poldracklab-stop-signal,150,122207,0.0-3.0-72.0,,<div class = centerbox><div class = cue-text><img class = center src='/static/experiments/stop_signal_rdoc/images/square.png'></img></div></div>,,test_trial,1500.0,,test,0.0,1000.0,False,<img class = center src='/static/experiments/stop_signal_rdoc/images/stopSignal.png'></img>,stop,500.0,750.0,"[',', '.']",,square,,24.0,stop,1.0,1,,,,,,
151,,html-keyboard-response,151,122720,0.0-3.0-73.0,,<div class = centerbox><div class = fixation>+</div></div>,,test_ITI,506.62898727064066,,test,0.0,506.62898727064066,,,,,,,,,,,,,,"{'min': 0, 'max': 5, 'mean': 0.5}",,,,,
152,,html-keyboard-response,152,123226,0.0-3.0-74.0,,<div class = centerbox><div class = fixation>+</div></div>,,test_fixation,500.0,,test,0.0,500.0,,,,,,,,,,,,,,,,,,,
153,,poldracklab-stop-signal,153,124730,0.0-3.0-75.0,,<div class = centerbox><div class = cue-text><img class = center src='/static/experiments/stop_signal_rdoc/images/square.png'></img></div></div>,,test_trial,1500.0,,test,0.0,1000.0,False,<img class = center src='/static/experiments/stop_signal_rdoc/images/stopSignal.png'></img>,go,500.0,800.0,"[',', '.']",,square,.,25.0,go,,1,,0.0,,,,
154,,html-keyboard-response,154,124866,0.0-3.0-76.0,,<div class = centerbox><div class = fixation>+</div></div>,,test_ITI,134.90809831054335,,test,0.0,134.90809831054335,,,,,,,,,,,,,,"{'min': 0, 'max': 5, 'mean': 0.5}",,,,,
155,,html-keyboard-response,155,125371,0.0-3.0-77.0,,<div class = centerbox><div class = fixation>+</div></div>,,test_fixation,500.0,,test,0.0,500.0,,,,,,,,,,,,,,,,,,,
156,,poldracklab-stop-signal,156,126876,0.0-3.0-78.0,,<div class = centerbox><div class = cue-text><img class = center src='/static/experiments/stop_signal_rdoc/images/circle.png'></img></div></div>,,test_trial,1500.0,,test,0.0,1000.0,False,<img class = center src='/static/experiments/stop_signal_rdoc/images/stopSignal.png'></img>,go,500.0,800.0,"[',', '.']",,circle,",",26.0,go,,1,,0.0,,,,
157,,html-keyboard-response,157,127489,0.0-3.0-79.0,,<div class = centerbox><div class = fixation>+</div></div>,,test_ITI,607.189161141914,,test,0.0,607.189161141914,,,,,,,,,,,,,,"{'min': 0, 'max': 5, 'mean': 0.5}",,,,,
158,,html-keyboard-response,158,127995,0.0-3.0-80.0,,<div class = centerbox><div class = fixation>+</div></div>,,test_fixation,500.0,,test,0.0,500.0,,,,,,,,,,,,,,,,,,,
159,,poldracklab-stop-signal,159,129498,0.0-3.0-81.0,,<div class = centerbox><div class = cue-text><img class = center src='/static/experiments/stop_signal_rdoc/images/circle.png'></img></div></div>,,test_trial,1500.0,,test,0.0,1000.0,False,<img class = center src='/static/experiments/stop_signal_rdoc/images/stopSignal.png'></img>,stop,500.0,800.0,"[',', '.']",,circle,,27.0,stop,1.0,1,,,,,,
160,,html-keyboard-response,160,129780,0.0-3.0-82.0,,<div class = centerbox><div class = fixation>+</div></div>,,test_ITI,276.5051836056934,,test,0.0,276.5051836056934,,,,,,,,,,,,,,"{'min': 0, 'max': 5, 'mean': 0.5}",,,,,
161,,html-keyboard-response,161,130287,0.0-3.0-83.0,,<div class = centerbox><div class = fixation>+</div></div>,,test_fixation,500.0,,test,0.0,500.0,,,,,,,,,,,,,,,,,,,
162,,poldracklab-stop-signal,162,131791,0.0-3.0-84.0,,<div class = centerbox><div class = cue-text><img class = center src='/static/experiments/stop_signal_rdoc/images/square.png'></img></div></div>,,test_trial,1500.0,,test,0.0,1000.0,False,<img class = center src='/static/experiments/stop_signal_rdoc/images/stopSignal.png'></img>,go,500.0,850.0,"[',', '.']",,square,.,28.0,go,,1,,0.0,,,,
163,,html-keyboard-response,163,131972,0.0-3.0-85.0,,<div class = centerbox><div class = fixation>+</div></div>,,test_ITI,177.1436697167719,,test,0.0,177.1436697167719,,,,,,,,,,,,,,"{'min': 0, 'max': 5, 'mean': 0.5}",,,,,
164,,html-keyboard-response,164,132477,0.0-3.0-86.0,,<div class = centerbox><div class = fixation>+</div></div>,,test_fixation,500.0,,test,0.0,500.0,,,,,,,,,,,,,,,,,,,
165,,poldracklab-stop-signal,165,133983,0.0-3.0-87.0,,<div class = centerbox><div class = cue-text><img class = center src='/static/experiments/stop_signal_rdoc/images/circle.png'></img></div></div>,,test_trial,1500.0,,test,0.0,1000.0,False,<img class = center src='/static/experiments/stop_signal_rdoc/images/stopSignal.png'></img>,go,500.0,850.0,"[',', '.']",,circle,",",29.0,go,,1,,0.0,,,,
166,,html-keyboard-response,166,135422,0.0-3.0-88.0,,<div class = centerbox><div class = fixation>+</div></div>,,test_ITI,1436.1460028759964,,test,0.0,1436.1460028759964,,,,,,,,,,,,,,"{'min': 0, 'max': 5, 'mean': 0.5}",,,,,
167,,html-keyboard-response,167,135929,0.0-3.0-89.0,,<div class = centerbox><div class = fixation>+</div></div>,,test_fixation,500.0,,test,0.0,500.0,,,,,,,,,,,,,,,,,,,
168,,poldracklab-stop-signal,168,137435,0.0-3.0-90.0,,<div class = centerbox><div class = cue-text><img class = center src='/static/experiments/stop_signal_rdoc/images/circle.png'></img></div></div>,,test_trial,1500.0,,test,0.0,1000.0,False,<img class = center src='/static/experiments/stop_signal_rdoc/images/stopSignal.png'></img>,stop,500.0,850.0,"[',', '.']",,circle,,30.0,stop,1.0,1,,,,,,
169,,html-keyboard-response,169,137551,0.0-3.0-91.0,,<div class = centerbox><div class = fixation>+</div></div>,,test_ITI,112.83945521906801,,test,0.0,112.83945521906801,,,,,,,,,,,,,,"{'min': 0, 'max': 5, 'mean': 0.5}",,,,,
170,,html-keyboard-response,170,138055,0.0-3.0-92.0,,<div class = centerbox><div class = fixation>+</div></div>,,test_fixation,500.0,,test,0.0,500.0,,,,,,,,,,,,,,,,,,,
171,,poldracklab-stop-signal,171,139562,0.0-3.0-93.0,,<div class = centerbox><div class = cue-text><img class = center src='/static/experiments/stop_signal_rdoc/images/square.png'></img></div></div>,,test_trial,1500.0,,test,0.0,1000.0,False,<img class = center src='/static/experiments/stop_signal_rdoc/images/stopSignal.png'></img>,go,500.0,900.0,"[',', '.']",,square,.,31.0,go,,1,,0.0,,,,
172,,html-keyboard-response,172,142134,0.0-3.0-94.0,,<div class = centerbox><div class = fixation>+</div></div>,,test_ITI,2571.407207202679,,test,0.0,2571.407207202679,,,,,,,,,,,,,,"{'min': 0, 'max': 5, 'mean': 0.5}",,,,,
173,,html-keyboard-response,173,142636,0.0-3.0-95.0,,<div class = centerbox><div class = fixation>+</div></div>,,test_fixation,500.0,,test,0.0,500.0,,,,,,,,,,,,,,,,,,,
174,,poldracklab-stop-signal,174,144140,0.0-3.0-96.0,478.0,<div class = centerbox><div class = cue-text><img class = center src='/static/experiments/stop_signal_rdoc/images/circle.png'></img></div></div>,",",test_trial,1500.0,,test,0.0,1000.0,False,<img class = center src='/static/experiments/stop_signal_rdoc/images/stopSignal.png'></img>,go,500.0,900.0,"[',', '.']",,circle,",",32.0,go,,0,,1.0,,,,
175,,html-keyboard-response,175,144713,0.0-3.0-97.0,,<div class = centerbox><div class = fixation>+</div></div>,,test_ITI,571.7623958549938,,test,0.0,571.7623958549938,,,,,,,,,,,,,,"{'min': 0, 'max': 5, 'mean': 0.5}",,,,,
176,,html-keyboard-response,176,145220,0.0-3.0-98.0,,<div class = centerbox><div class = fixation>+</div></div>,,test_fixation,500.0,,test,0.0,500.0,,,,,,,,,,,,,,,,,,,
177,,poldracklab-stop-signal,177,146726,0.0-3.0-99.0,,<div class = centerbox><div class = cue-text><img class = center src='/static/experiments/stop_signal_rdoc/images/circle.png'></img></div></div>,,test_trial,1500.0,,test,0.0,1000.0,False,<img class = center src='/static/experiments/stop_signal_rdoc/images/stopSignal.png'></img>,go,500.0,900.0,"[',', '.']",,circle,",",33.0,go,,1,,0.0,,,,
178,,html-keyboard-response,178,149312,0.0-3.0-100.0,,<div class = centerbox><div class = fixation>+</div></div>,,test_ITI,2584.7515657475756,,test,0.0,2584.7515657475756,,,,,,,,,,,,,,"{'min': 0, 'max': 5, 'mean': 0.5}",,,,,
179,,html-keyboard-response,179,149814,0.0-3.0-101.0,,<div class = centerbox><div class = fixation>+</div></div>,,test_fixation,500.0,,test,0.0,500.0,,,,,,,,,,,,,,,,,,,
180,,poldracklab-stop-signal,180,151321,0.0-3.0-102.0,,<div class = centerbox><div class = cue-text><img class = center src='/static/experiments/stop_signal_rdoc/images/square.png'></img></div></div>,,test_trial,1500.0,,test,0.0,1000.0,False,<img class = center src='/static/experiments/stop_signal_rdoc/images/stopSignal.png'></img>,go,500.0,900.0,"[',', '.']",,square,.,34.0,go,,1,,0.0,,,,
181,,html-keyboard-response,181,153818,0.0-3.0-103.0,,<div class = centerbox><div class = fixation>+</div></div>,,test_ITI,2492.0461830212544,,test,0.0,2492.0461830212544,,,,,,,,,,,,,,"{'min': 0, 'max': 5, 'mean': 0.5}",,,,,
182,,html-keyboard-response,182,154322,0.0-3.0-104.0,,<div class = centerbox><div class = fixation>+</div></div>,,test_fixation,500.0,,test,0.0,500.0,,,,,,,,,,,,,,,,,,,
183,,poldracklab-stop-signal,183,155827,0.0-3.0-105.0,,<div class = centerbox><div class = cue-text><img class = center src='/static/experiments/stop_signal_rdoc/images/circle.png'></img></div></div>,,test_trial,1500.0,,test,0.0,1000.0,False,<img class = center src='/static/experiments/stop_signal_rdoc/images/stopSignal.png'></img>,stop,500.0,900.0,"[',', '.']",,circle,,35.0,stop,1.0,1,,,,,,
184,,html-keyboard-response,184,156337,0.0-3.0-106.0,,<div class = centerbox><div class = fixation>+</div></div>,,test_ITI,504.806091841846,,test,0.0,504.806091841846,,,,,,,,,,,,,,"{'min': 0, 'max': 5, 'mean': 0.5}",,,,,
185,,html-keyboard-response,185,156839,0.0-3.0-107.0,,<div class = centerbox><div class = fixation>+</div></div>,,test_fixation,500.0,,test,0.0,500.0,,,,,,,,,,,,,,,,,,,
186,,poldracklab-stop-signal,186,158346,0.0-3.0-108.0,,<div class = centerbox><div class = cue-text><img class = center src='/static/experiments/stop_signal_rdoc/images/square.png'></img></div></div>,,test_trial,1500.0,,test,0.0,1000.0,False,<img class = center src='/static/experiments/stop_signal_rdoc/images/stopSignal.png'></img>,go,500.0,950.0,"[',', '.']",,square,.,36.0,go,,1,,0.0,,,,
187,,html-keyboard-response,187,158730,0.0-3.0-109.0,,<div class = centerbox><div class = fixation>+</div></div>,,test_ITI,377.83054730955166,,test,0.0,377.83054730955166,,,,,,,,,,,,,,"{'min': 0, 'max': 5, 'mean': 0.5}",,,,,
188,,html-keyboard-response,188,159232,0.0-3.0-110.0,,<div class = centerbox><div class = fixation>+</div></div>,,test_fixation,500.0,,test,0.0,500.0,,,,,,,,,,,,,,,,,,,
189,,poldracklab-stop-signal,189,160739,0.0-3.0-111.0,,<div class = centerbox><div class = cue-text><img class = center src='/static/experiments/stop_signal_rdoc/images/square.png'></img></div></div>,,test_trial,1500.0,,test,0.0,1000.0,False,<img class = center src='/static/experiments/stop_signal_rdoc/images/stopSignal.png'></img>,go,500.0,950.0,"[',', '.']",,square,.,37.0,go,,1,,0.0,,,,
190,,html-keyboard-response,190,161385,0.0-3.0-112.0,,<div class = centerbox><div class = fixation>+</div></div>,,test_ITI,644.6044034774159,,test,0.0,644.6044034774159,,,,,,,,,,,,,,"{'min': 0, 'max': 5, 'mean': 0.5}",,,,,
191,,html-keyboard-response,191,161886,0.0-3.0-113.0,,<div class = centerbox><div class = fixation>+</div></div>,,test_fixation,500.0,,test,0.0,500.0,,,,,,,,,,,,,,,,,,,
192,,poldracklab-stop-signal,192,163393,0.0-3.0-114.0,,<div class = centerbox><div class = cue-text><img class = center src='/static/experiments/stop_signal_rdoc/images/square.png'></img></div></div>,,test_trial,1500.0,,test,0.0,1000.0,False,<img class = center src='/static/experiments/stop_signal_rdoc/images/stopSignal.png'></img>,go,500.0,950.0,"[',', '.']",,square,.,38.0,go,,1,,0.0,,,,
193,,html-keyboard-response,193,164124,0.0-3.0-115.0,,<div class = centerbox><div class = fixation>+</div></div>,,test_ITI,725.1169472775234,,test,0.0,725.1169472775234,,,,,,,,,,,,,,"{'min': 0, 'max': 5, 'mean': 0.5}",,,,,
194,,html-keyboard-response,194,164630,0.0-3.0-116.0,,<div class = centerbox><div class = fixation>+</div></div>,,test_fixation,500.0,,test,0.0,500.0,,,,,,,,,,,,,,,,,,,
195,,poldracklab-stop-signal,195,166137,0.0-3.0-117.0,,<div class = centerbox><div class = cue-text><img class = center src='/static/experiments/stop_signal_rdoc/images/circle.png'></img></div></div>,,test_trial,1500.0,,test,0.0,1000.0,False,<img class = center src='/static/experiments/stop_signal_rdoc/images/stopSignal.png'></img>,go,500.0,950.0,"[',', '.']",,circle,",",39.0,go,,1,,0.0,,,,
196,,html-keyboard-response,196,167452,0.0-3.0-118.0,,<div class = centerbox><div class = fixation>+</div></div>,,test_ITI,1310.6318486074736,,test,0.0,1310.6318486074736,,,,,,,,,,,,,,"{'min': 0, 'max': 5, 'mean': 0.5}",,,,,
197,,html-keyboard-response,197,167956,0.0-3.0-119.0,,<div class = centerbox><div class = fixation>+</div></div>,,test_fixation,500.0,,test,0.0,500.0,,,,,,,,,,,,,,,,,,,
198,,poldracklab-stop-signal,198,169461,0.0-3.0-120.0,,<div class = centerbox><div class = cue-text><img class = center src='/static/experiments/stop_signal_rdoc/images/square.png'></img></div></div>,,test_trial,1500.0,,test,0.0,1000.0,False,<img class = center src='/static/experiments/stop_signal_rdoc/images/stopSignal.png'></img>,stop,500.0,950.0,"[',', '.']",,square,,40.0,stop,1.0,1,,,,,,
199,,html-keyboard-response,199,170184,0.0-3.0-121.0,,<div class = centerbox><div class = fixation>+</div></div>,,test_ITI,719.9693142265809,,test,0.0,719.9693142265809,,,,,,,,,,,,,,"{'min': 0, 'max': 5, 'mean': 0.5}",,,,,
200,,html-keyboard-response,200,170687,0.0-3.0-122.0,,<div class = centerbox><div class = fixation>+</div></div>,,test_fixation,500.0,,test,0.0,500.0,,,,,,,,,,,,,,,,,,,
201,,poldracklab-stop-signal,201,172190,0.0-3.0-123.0,,<div class = centerbox><div class = cue-text><img class = center src='/static/experiments/stop_signal_rdoc/images/square.png'></img></div></div>,,test_trial,1500.0,,test,0.0,1000.0,False,<img class = center src='/static/experiments/stop_signal_rdoc/images/stopSignal.png'></img>,go,500.0,1000.0,"[',', '.']",,square,.,41.0,go,,1,,0.0,,,,
202,,html-keyboard-response,202,172460,0.0-3.0-124.0,,<div class = centerbox><div class = fixation>+</div></div>,,test_ITI,263.9447897290787,,test,0.0,263.9447897290787,,,,,,,,,,,,,,"{'min': 0, 'max': 5, 'mean': 0.5}",,,,,
203,,html-keyboard-response,203,172966,0.0-3.0-125.0,,<div class = centerbox><div class = fixation>+</div></div>,,test_fixation,500.0,,test,0.0,500.0,,,,,,,,,,,,,,,,,,,
204,,poldracklab-stop-signal,204,174472,0.0-3.0-126.0,,<div class = centerbox><div class = cue-text><img class = center src='/static/experiments/stop_signal_rdoc/images/circle.png'></img></div></div>,,test_trial,1500.0,,test,0.0,1000.0,False,<img class = center src='/static/experiments/stop_signal_rdoc/images/stopSignal.png'></img>,go,500.0,1000.0,"[',', '.']",,circle,",",42.0,go,,1,,0.0,,,,
205,,html-keyboard-response,205,174935,0.0-3.0-127.0,,<div class = centerbox><div class = fixation>+</div></div>,,test_ITI,457.19533633668453,,test,0.0,457.19533633668453,,,,,,,,,,,,,,"{'min': 0, 'max': 5, 'mean': 0.5}",,,,,
206,,html-keyboard-response,206,175437,0.0-3.0-128.0,,<div class = centerbox><div class = fixation>+</div></div>,,test_fixation,500.0,,test,0.0,500.0,,,,,,,,,,,,,,,,,,,
207,,poldracklab-stop-signal,207,176945,0.0-3.0-129.0,,<div class = centerbox><div class = cue-text><img class = center src='/static/experiments/stop_signal_rdoc/images/circle.png'></img></div></div>,,test_trial,1500.0,,test,0.0,1000.0,False,<img class = center src='/static/experiments/stop_signal_rdoc/images/stopSignal.png'></img>,go,500.0,1000.0,"[',', '.']",,circle,",",43.0,go,,1,,0.0,,,,
208,,html-keyboard-response,208,177227,0.0-3.0-130.0,,<div class = centerbox><div class = fixation>+</div></div>,,test_ITI,277.3609708619865,,test,0.0,277.3609708619865,,,,,,,,,,,,,,"{'min': 0, 'max': 5, 'mean': 0.5}",,,,,
209,,html-keyboard-response,209,177734,0.0-3.0-131.0,,<div class = centerbox><div class = fixation>+</div></div>,,test_fixation,500.0,,test,0.0,500.0,,,,,,,,,,,,,,,,,,,
210,,poldracklab-stop-signal,210,179238,0.0-3.0-132.0,,<div class = centerbox><div class = cue-text><img class = center src='/static/experiments/stop_signal_rdoc/images/square.png'></img></div></div>,,test_trial,1500.0,,test,0.0,1000.0,False,<img class = center src='/static/experiments/stop_signal_rdoc/images/stopSignal.png'></img>,stop,500.0,1000.0,"[',', '.']",,square,,44.0,stop,,1,,,,,,
211,,html-keyboard-response,211,179245,0.0-3.0-133.0,,<div class = centerbox><div class = fixation>+</div></div>,,test_ITI,5.958633674884618,,test,0.0,5.958633674884618,,,,,,,,,,,,,,"{'min': 0, 'max': 5, 'mean': 0.5}",,,,,
212,,html-keyboard-response,212,179752,0.0-3.0-134.0,,<div class = centerbox><div class = fixation>+</div></div>,,test_fixation,500.0,,test,0.0,500.0,,,,,,,,,,,,,,,,,,,
213,,poldracklab-stop-signal,213,181259,0.0-3.0-135.0,,<div class = centerbox><div class = cue-text><img class = center src='/static/experiments/stop_signal_rdoc/images/square.png'></img></div></div>,,test_trial,1500.0,,test,0.0,1000.0,False,<img class = center src='/static/experiments/stop_signal_rdoc/images/stopSignal.png'></img>,go,500.0,1000.0,"[',', '.']",,square,.,45.0,go,,1,,0.0,,,,
214,,html-keyboard-response,214,182202,0.0-3.0-136.0,,<div class = centerbox><div class = fixation>+</div></div>,,test_ITI,936.2668761377539,,test,0.0,936.2668761377539,,,,,,,,,,,,,,"{'min': 0, 'max': 5, 'mean': 0.5}",,,,,
215,,html-keyboard-response,215,182706,0.0-3.0-137.0,,<div class = centerbox><div class = fixation>+</div></div>,,test_fixation,500.0,,test,0.0,500.0,,,,,,,,,,,,,,,,,,,
216,,poldracklab-stop-signal,216,184210,0.0-3.0-138.0,,<div class = centerbox><div class = cue-text><img class = center src='/static/experiments/stop_signal_rdoc/images/circle.png'></img></div></div>,,test_trial,1500.0,,test,0.0,1000.0,False,<img class = center src='/static/experiments/stop_signal_rdoc/images/stopSignal.png'></img>,go,500.0,1000.0,"[',', '.']",,circle,",",46.0,go,,1,,0.0,,,,
217,,html-keyboard-response,217,184528,0.0-3.0-139.0,,<div class = centerbox><div class = fixation>+</div></div>,,test_ITI,314.3447814975214,,test,0.0,314.3447814975214,,,,,,,,,,,,,,"{'min': 0, 'max': 5, 'mean': 0.5}",,,,,
218,,html-keyboard-response,218,185036,0.0-3.0-140.0,,<div class = centerbox><div class = fixation>+</div></div>,,test_fixation,500.0,,test,0.0,500.0,,,,,,,,,,,,,,,,,,,
219,,poldracklab-stop-signal,219,186541,0.0-3.0-141.0,,<div class = centerbox><div class = cue-text><img class = center src='/static/experiments/stop_signal_rdoc/images/circle.png'></img></div></div>,,test_trial,1500.0,,test,0.0,1000.0,False,<img class = center src='/static/experiments/stop_signal_rdoc/images/stopSignal.png'></img>,stop,500.0,1000.0,"[',', '.']",,circle,,47.0,stop,,1,,,,,,
220,,html-keyboard-response,220,186963,0.0-3.0-142.0,,<div class = centerbox><div class = fixation>+</div></div>,,test_ITI,419.83691451199957,,test,0.0,419.83691451199957,,,,,,,,,,,,,,"{'min': 0, 'max': 5, 'mean': 0.5}",,,,,
221,,html-keyboard-response,221,187466,0.0-3.0-143.0,,<div class = centerbox><div class = fixation>+</div></div>,,test_fixation,500.0,,test,0.0,500.0,,,,,,,,,,,,,,,,,,,
222,,poldracklab-stop-signal,222,188972,0.0-3.0-144.0,,<div class = centerbox><div class = cue-text><img class = center src='/static/experiments/stop_signal_rdoc/images/circle.png'></img></div></div>,,test_trial,1500.0,,test,0.0,1000.0,False,<img class = center src='/static/experiments/stop_signal_rdoc/images/stopSignal.png'></img>,go,500.0,1000.0,"[',', '.']",,circle,",",48.0,go,,1,,0.0,,,,
223,,html-keyboard-response,223,189183,0.0-3.0-145.0,,<div class = centerbox><div class = fixation>+</div></div>,,test_ITI,208.38920485581156,,test,0.0,208.38920485581156,,,,,,,,,,,,,,"{'min': 0, 'max': 5, 'mean': 0.5}",,,,,
224,,html-keyboard-response,224,189690,0.0-3.0-146.0,,<div class = centerbox><div class = fixation>+</div></div>,,test_fixation,500.0,,test,0.0,500.0,,,,,,,,,,,,,,,,,,,
225,,poldracklab-stop-signal,225,191194,0.0-3.0-147.0,,<div class = centerbox><div class = cue-text><img class = center src='/static/experiments/stop_signal_rdoc/images/square.png'></img></div></div>,,test_trial,1500.0,,test,0.0,1000.0,False,<img class = center src='/static/experiments/stop_signal_rdoc/images/stopSignal.png'></img>,go,500.0,1000.0,"[',', '.']",,square,.,49.0,go,,1,,0.0,,,,
226,,html-keyboard-response,226,191537,0.0-3.0-148.0,,<div class = centerbox><div class = fixation>+</div></div>,,test_ITI,337.64065706658727,,test,0.0,337.64065706658727,,,,,,,,,,,,,,"{'min': 0, 'max': 5, 'mean': 0.5}",,,,,
227,,html-keyboard-response,227,192043,0.0-3.0-149.0,,<div class = centerbox><div class = fixation>+</div></div>,,test_fixation,500.0,,test,0.0,500.0,,,,,,,,,,,,,,,,,,,
228,,poldracklab-stop-signal,228,193546,0.0-3.0-150.0,,<div class = centerbox><div class = cue-text><img class = center src='/static/experiments/stop_signal_rdoc/images/circle.png'></img></div></div>,,test_trial,1500.0,,test,0.0,1000.0,False,<img class = center src='/static/experiments/stop_signal_rdoc/images/stopSignal.png'></img>,go,500.0,1000.0,"[',', '.']",,circle,",",50.0,go,,1,,0.0,,,,
229,,html-keyboard-response,229,194260,0.0-3.0-151.0,,<div class = centerbox><div class = fixation>+</div></div>,,test_ITI,709.6561342436796,,test,0.0,709.6561342436796,,,,,,,,,,,,,,"{'min': 0, 'max': 5, 'mean': 0.5}",,,,,
230,,html-keyboard-response,230,194767,0.0-3.0-152.0,,<div class = centerbox><div class = fixation>+</div></div>,,test_fixation,500.0,,test,0.0,500.0,,,,,,,,,,,,,,,,,,,
231,,poldracklab-stop-signal,231,196271,0.0-3.0-153.0,,<div class = centerbox><div class = cue-text><img class = center src='/static/experiments/stop_signal_rdoc/images/circle.png'></img></div></div>,,test_trial,1500.0,,test,0.0,1000.0,False,<img class = center src='/static/experiments/stop_signal_rdoc/images/stopSignal.png'></img>,go,500.0,1000.0,"[',', '.']",,circle,",",51.0,go,,1,,0.0,,,,
232,,html-keyboard-response,232,196730,0.0-3.0-154.0,,<div class = centerbox><div class = fixation>+</div></div>,,test_ITI,456.0459370105974,,test,0.0,456.0459370105974,,,,,,,,,,,,,,"{'min': 0, 'max': 5, 'mean': 0.5}",,,,,
233,,html-keyboard-response,233,197231,0.0-3.0-155.0,,<div class = centerbox><div class = fixation>+</div></div>,,test_fixation,500.0,,test,0.0,500.0,,,,,,,,,,,,,,,,,,,
234,,poldracklab-stop-signal,234,198736,0.0-3.0-156.0,,<div class = centerbox><div class = cue-text><img class = center src='/static/experiments/stop_signal_rdoc/images/circle.png'></img></div></div>,,test_trial,1500.0,,test,0.0,1000.0,False,<img class = center src='/static/experiments/stop_signal_rdoc/images/stopSignal.png'></img>,go,500.0,1000.0,"[',', '.']",,circle,",",52.0,go,,1,,0.0,,,,
235,,html-keyboard-response,235,198808,0.0-3.0-157.0,,<div class = centerbox><div class = fixation>+</div></div>,,test_ITI,66.23180595454657,,test,0.0,66.23180595454657,,,,,,,,,,,,,,"{'min': 0, 'max': 5, 'mean': 0.5}",,,,,
236,,html-keyboard-response,236,199315,0.0-3.0-158.0,,<div class = centerbox><div class = fixation>+</div></div>,,test_fixation,500.0,,test,0.0,500.0,,,,,,,,,,,,,,,,,,,
237,,poldracklab-stop-signal,237,200822,0.0-3.0-159.0,,<div class = centerbox><div class = cue-text><img class = center src='/static/experiments/stop_signal_rdoc/images/circle.png'></img></div></div>,,test_trial,1500.0,,test,0.0,1000.0,False,<img class = center src='/static/experiments/stop_signal_rdoc/images/stopSignal.png'></img>,stop,500.0,1000.0,"[',', '.']",,circle,,53.0,stop,,1,,,,,,
238,,html-keyboard-response,238,201056,0.0-3.0-160.0,,<div class = centerbox><div class = fixation>+</div></div>,,test_ITI,231.42007014014516,,test,0.0,231.42007014014516,,,,,,,,,,,,,,"{'min': 0, 'max': 5, 'mean': 0.5}",,,,,
239,,html-keyboard-response,239,201562,0.0-3.0-161.0,,<div class = centerbox><div class = fixation>+</div></div>,,test_fixation,500.0,,test,0.0,500.0,,,,,,,,,,,,,,,,,,,
240,,poldracklab-stop-signal,240,203067,0.0-3.0-162.0,,<div class = centerbox><div class = cue-text><img class = center src='/static/experiments/stop_signal_rdoc/images/square.png'></img></div></div>,,test_trial,1500.0,,test,0.0,1000.0,False,<img class = center src='/static/experiments/stop_signal_rdoc/images/stopSignal.png'></img>,go,500.0,1000.0,"[',', '.']",,square,.,54.0,go,,1,,0.0,,,,
241,,html-keyboard-response,241,203162,0.0-3.0-163.0,,<div class = centerbox><div class = fixation>+</div></div>,,test_ITI,90.7567568217418,,test,0.0,90.7567568217418,,,,,,,,,,,,,,"{'min': 0, 'max': 5, 'mean': 0.5}",,,,,
242,,html-keyboard-response,242,203667,0.0-3.0-164.0,,<div class = centerbox><div class = fixation>+</div></div>,,test_fixation,500.0,,test,0.0,500.0,,,,,,,,,,,,,,,,,,,
243,,poldracklab-stop-signal,243,205172,0.0-3.0-165.0,,<div class = centerbox><div class = cue-text><img class = center src='/static/experiments/stop_signal_rdoc/images/square.png'></img></div></div>,,test_trial,1500.0,,test,0.0,1000.0,False,<img class = center src='/static/experiments/stop_signal_rdoc/images/stopSignal.png'></img>,go,500.0,1000.0,"[',', '.']",,square,.,55.0,go,,1,,0.0,,,,
244,,html-keyboard-response,244,205196,0.0-3.0-166.0,,<div class = centerbox><div class = fixation>+</div></div>,,test_ITI,20.84289369096355,,test,0.0,20.84289369096355,,,,,,,,,,,,,,"{'min': 0, 'max': 5, 'mean': 0.5}",,,,,
245,,html-keyboard-response,245,205698,0.0-3.0-167.0,,<div class = centerbox><div class = fixation>+</div></div>,,test_fixation,500.0,,test,0.0,500.0,,,,,,,,,,,,,,,,,,,
246,,poldracklab-stop-signal,246,207203,0.0-3.0-168.0,,<div class = centerbox><div class = cue-text><img class = center src='/static/experiments/stop_signal_rdoc/images/square.png'></img></div></div>,,test_trial,1500.0,,test,0.0,1000.0,False,<img class = center src='/static/experiments/stop_signal_rdoc/images/stopSignal.png'></img>,stop,500.0,1000.0,"[',', '.']",,square,,56.0,stop,,1,,,,,,
247,,html-keyboard-response,247,207376,0.0-3.0-169.0,,<div class = centerbox><div class = fixation>+</div></div>,,test_ITI,169.0216552918624,,test,0.0,169.0216552918624,,,,,,,,,,,,,,"{'min': 0, 'max': 5, 'mean': 0.5}",,,,,
248,,html-keyboard-response,248,207882,0.0-3.0-170.0,,<div class = centerbox><div class = fixation>+</div></div>,,test_fixation,500.0,,test,0.0,500.0,,,,,,,,,,,,,,,,,,,
249,,poldracklab-stop-signal,249,209386,0.0-3.0-171.0,,<div class = centerbox><div class = cue-text><img class = center src='/static/experiments/stop_signal_rdoc/images/square.png'></img></div></div>,,test_trial,1500.0,,test,0.0,1000.0,False,<img class = center src='/static/experiments/stop_signal_rdoc/images/stopSignal.png'></img>,stop,500.0,1000.0,"[',', '.']",,square,,57.0,stop,,1,,,,,,
250,,html-keyboard-response,250,209680,0.0-3.0-172.0,,<div class = centerbox><div class = fixation>+</div></div>,,test_ITI,288.90322716415653,,test,0.0,288.90322716415653,,,,,,,,,,,,,,"{'min': 0, 'max': 5, 'mean': 0.5}",,,,,
251,,html-keyboard-response,251,210186,0.0-3.0-173.0,,<div class = centerbox><div class = fixation>+</div></div>,,test_fixation,500.0,,test,0.0,500.0,,,,,,,,,,,,,,,,,,,
252,,poldracklab-stop-signal,252,211689,0.0-3.0-174.0,,<div class = centerbox><div class = cue-text><img class = center src='/static/experiments/stop_signal_rdoc/images/circle.png'></img></div></div>,,test_trial,1500.0,,test,0.0,1000.0,False,<img class = center src='/static/experiments/stop_signal_rdoc/images/stopSignal.png'></img>,stop,500.0,1000.0,"[',', '.']",,circle,,58.0,stop,,1,,,,,,
253,,html-keyboard-response,253,212838,0.0-3.0-175.0,,<div class = centerbox><div class = fixation>+</div></div>,,test_ITI,1145.4672801885456,,test,0.0,1145.4672801885456,,,,,,,,,,,,,,"{'min': 0, 'max': 5, 'mean': 0.5}",,,,,
254,,html-keyboard-response,254,213341,0.0-3.0-176.0,,<div class = centerbox><div class = fixation>+</div></div>,,test_fixation,500.0,,test,0.0,500.0,,,,,,,,,,,,,,,,,,,
255,,poldracklab-stop-signal,255,214847,0.0-3.0-177.0,,<div class = centerbox><div class = cue-text><img class = center src='/static/experiments/stop_signal_rdoc/images/circle.png'></img></div></div>,,test_trial,1500.0,,test,0.0,1000.0,False,<img class = center src='/static/experiments/stop_signal_rdoc/images/stopSignal.png'></img>,go,500.0,1000.0,"[',', '.']",,circle,",",59.0,go,,1,,0.0,,,,
256,,html-keyboard-response,256,215233,0.0-3.0-178.0,,<div class = centerbox><div class = fixation>+</div></div>,,test_ITI,382.51973338977916,,test,0.0,382.51973338977916,,,,,,,,,,,,,,"{'min': 0, 'max': 5, 'mean': 0.5}",,,,,
257,,html-keyboard-response,257,215739,0.0-3.0-179.0,,<div class = centerbox><div class = fixation>+</div></div>,,test_fixation,500.0,,test,0.0,500.0,,,,,,,,,,,,,,,,,,,
258,,poldracklab-stop-signal,258,217242,0.0-3.0-180.0,,<div class = centerbox><div class = cue-text><img class = center src='/static/experiments/stop_signal_rdoc/images/circle.png'></img></div></div>,,test_trial,1500.0,,test,0.0,1000.0,False,<img class = center src='/static/experiments/stop_signal_rdoc/images/stopSignal.png'></img>,stop,500.0,1000.0,"[',', '.']",,circle,,60.0,stop,,1,,,,,,
259,,html-keyboard-response,259,217856,0.0-3.0-181.0,,<div class = centerbox><div class = fixation>+</div></div>,,test_ITI,608.0175178763675,,test,0.0,608.0175178763675,,,,,,,,,,,,,,"{'min': 0, 'max': 5, 'mean': 0.5}",,,,,
260,,html-keyboard-response,260,219516,0.0-3.1-0.1,1658.0,"<div class = bigbox><div class = picture_box><p class = block-text>
    <div class = centerbox><p class = block-text>Please take this time to read your feedback! This screen will advance automatically in 1 minute.</p><p class=block-text>You have completed 1 out of 3 blocks of trials.</p>
        <p class=""block-text"">Your accuracy is low. Remember:</p>
        
  <ul style=""text-align:left;"">
    <li>circle: index finger</li>
    <li>square: middle finger</li>
    <li>Do not respond if a star appears.</li>
  </ul>

        <p class=""block-text"">We have detected a number of trials that required a response, where no response was made. Please ensure that you are responding accurately and quickly to the shapes.</p>
        <p class=""block-text"">You have been responding too slowly. Do not wait for the star. Respond as quickly and accurately to each stimulus that requires a response.</p><p class=block-text>Press <i>enter</i> to continue.</p></div>
    </font></p></div></div>",enter,test_feedback,60000.0,,test,1.0,,,,,,,,,,,,,,,,,,,,
261,,html-keyboard-response,261,220416,0.0-3.1-1.1-0.1,900.0,,j,test_attention_check,,,test,1.0,,,,,,,,,,,,,,True,,,<p class='block-text'>Press the J key</p> <div class=block-text>This screen will advance automatically in 1 minute.</div>,74.0,,
262,,html-keyboard-response,262,220922,0.0-3.1-2.1,,<div class = centerbox><div class = fixation>+</div></div>,,test_fixation,500.0,,test,1.0,500.0,,,,,,,,,,,,,,,,,,,
263,,poldracklab-stop-signal,263,222426,0.0-3.1-3.1,659.0,<div class = centerbox><div class = cue-text><img class = center src='/static/experiments/stop_signal_rdoc/images/square.png'></img></div></div>,.,test_trial,1500.0,,test,1.0,1000.0,False,<img class = center src='/static/experiments/stop_signal_rdoc/images/stopSignal.png'></img>,go,500.0,1000.0,"[',', '.']",,square,.,1.0,go,,0,,1.0,,,,
264,,html-keyboard-response,264,222468,0.0-3.1-4.1,,<div class = centerbox><div class = fixation>+</div></div>,,test_ITI,37.17232152652993,,test,1.0,37.17232152652993,,,,,,,,,,,,,,"{'min': 0, 'max': 5, 'mean': 0.5}",,,,,
265,,html-keyboard-response,265,222973,0.0-3.1-5.1,,<div class = centerbox><div class = fixation>+</div></div>,,test_fixation,500.0,,test,1.0,500.0,,,,,,,,,,,,,,,,,,,
266,,poldracklab-stop-signal,266,224481,0.0-3.1-6.1,445.0,<div class = centerbox><div class = cue-text><img class = center src='/static/experiments/stop_signal_rdoc/images/square.png'></img></div></div>,.,test_trial,1500.0,,test,1.0,1000.0,False,<img class = center src='/static/experiments/stop_signal_rdoc/images/stopSignal.png'></img>,stop,500.0,1000.0,"[',', '.']",,square,,2.0,stop,0.0,0,,,,,,
267,,html-keyboard-response,267,224550,0.0-3.1-7.1,,<div class = centerbox><div class = fixation>+</div></div>,,test_ITI,65.65252104330024,,test,1.0,65.65252104330024,,,,,,,,,,,,,,"{'min': 0, 'max': 5, 'mean': 0.5}",,,,,
268,,html-keyboard-response,268,225056,0.0-3.1-8.1,,<div class = centerbox><div class = fixation>+</div></div>,,test_fixation,500.0,,test,1.0,500.0,,,,,,,,,,,,,,,,,,,
269,,poldracklab-stop-signal,269,226561,0.0-3.1-9.1,,<div class = centerbox><div class = cue-text><img class = center src='/static/experiments/stop_signal_rdoc/images/circle.png'></img></div></div>,,test_trial,1500.0,,test,1.0,1000.0,False,<img class = center src='/static/experiments/stop_signal_rdoc/images/stopSignal.png'></img>,go,500.0,950.0,"[',', '.']",,circle,",",3.0,go,,1,,0.0,,,,
270,,html-keyboard-response,270,227194,0.0-3.1-10.1,,<div class = centerbox><div class = fixation>+</div></div>,,test_ITI,627.1925896630784,,test,1.0,627.1925896630784,,,,,,,,,,,,,,"{'min': 0, 'max': 5, 'mean': 0.5}",,,,,
271,,html-keyboard-response,271,227701,0.0-3.1-11.1,,<div class = centerbox><div class = fixation>+</div></div>,,test_fixation,500.0,,test,1.0,500.0,,,,,,,,,,,,,,,,,,,
272,,poldracklab-stop-signal,272,229208,0.0-3.1-12.1,,<div class = centerbox><div class = cue-text><img class = center src='/static/experiments/stop_signal_rdoc/images/circle.png'></img></div></div>,,test_trial,1500.0,,test,1.0,1000.0,False,<img class = center src='/static/experiments/stop_signal_rdoc/images/stopSignal.png'></img>,go,500.0,950.0,"[',', '.']",,circle,",",4.0,go,,1,,0.0,,,,
273,,html-keyboard-response,273,230453,0.0-3.1-13.1,,<div class = centerbox><div class = fixation>+</div></div>,,test_ITI,1239.0104717154973,,test,1.0,1239.0104717154973,,,,,,,,,,,,,,"{'min': 0, 'max': 5, 'mean': 0.5}",,,,,
274,,html-keyboard-response,274,230960,0.0-3.1-14.1,,<div class = centerbox><div class = fixation>+</div></div>,,test_fixation,500.0,,test,1.0,500.0,,,,,,,,,,,,,,,,,,,
275,,poldracklab-stop-signal,275,232466,0.0-3.1-15.1,,<div class = centerbox><div class = cue-text><img class = center src='/static/experiments/stop_signal_rdoc/images/circle.png'></img></div></div>,,test_trial,1500.0,,test,1.0,1000.0,False,<img class = center src='/static/experiments/stop_signal_rdoc/images/stopSignal.png'></img>,go,500.0,950.0,"[',', '.']",,circle,",",5.0,go,,1,,0.0,,,,
276,,html-keyboard-response,276,234526,0.0-3.1-16.1,,<div class = centerbox><div class = fixation>+</div></div>,,test_ITI,2058.9316341914605,,test,1.0,2058.9316341914605,,,,,,,,,,,,,,"{'min': 0, 'max': 5, 'mean': 0.5}",,,,,
277,,html-keyboard-response,277,235033,0.0-3.1-17.1,,<div class = centerbox><div class = fixation>+</div></div>,,test_fixation,500.0,,test,1.0,500.0,,,,,,,,,,,,,,,,,,,
278,,poldracklab-stop-signal,278,236537,0.0-3.1-18.1,,<div class = centerbox><div class = cue-text><img class = center src='/static/experiments/stop_signal_rdoc/images/circle.png'></img></div></div>,,test_trial,1500.0,,test,1.0,1000.0,False,<img class = center src='/static/experiments/stop_signal_rdoc/images/stopSignal.png'></img>,go,500.0,950.0,"[',', '.']",,circle,",",6.0,go,,1,,0.0,,,,
279,,html-keyboard-response,279,237525,0.0-3.1-19.1,,<div class = centerbox><div class = fixation>+</div></div>,,test_ITI,982.8865508379807,,test,1.0,982.8865508379807,,,,,,,,,,,,,,"{'min': 0, 'max': 5, 'mean': 0.5}",,,,,
280,,html-keyboard-response,280,238032,0.0-3.1-20.1,,<div class = centerbox><div class = fixation>+</div></div>,,test_fixation,500.0,,test,1.0,500.0,,,,,,,,,,,,,,,,,,,
281,,poldracklab-stop-signal,281,239535,0.0-3.1-21.1,,<div class = centerbox><div class = cue-text><img class = center src='/static/experiments/stop_signal_rdoc/images/square.png'></img></div></div>,,test_trial,1500.0,,test,1.0,1000.0,False,<img class = center src='/static/experiments/stop_signal_rdoc/images/stopSignal.png'></img>,go,500.0,950.0,"[',', '.']",,square,.,7.0,go,,1,,0.0,,,,
282,,html-keyboard-response,282,239751,0.0-3.1-22.1,,<div class = centerbox><div class = fixation>+</div></div>,,test_ITI,210.40472500012507,,test,1.0,210.40472500012507,,,,,,,,,,,,,,"{'min': 0, 'max': 5, 'mean': 0.5}",,,,,
283,,html-keyboard-response,283,240258,0.0-3.1-23.1,,<div class = centerbox><div class = fixation>+</div></div>,,test_fixation,500.0,,test,1.0,500.0,,,,,,,,,,,,,,,,,,,
284,,poldracklab-stop-signal,284,241765,0.0-3.1-24.1,,<div class = centerbox><div class = cue-text><img class = center src='/static/experiments/stop_signal_rdoc/images/circle.png'></img></div></div>,,test_trial,1500.0,,test,1.0,1000.0,False,<img class = center src='/static/experiments/stop_signal_rdoc/images/stopSignal.png'></img>,stop,500.0,950.0,"[',', '.']",,circle,,8.0,stop,1.0,1,,,,,,
285,,html-keyboard-response,285,241788,0.0-3.1-25.1,,<div class = centerbox><div class = fixation>+</div></div>,,test_ITI,21.804966870962563,,test,1.0,21.804966870962563,,,,,,,,,,,,,,"{'min': 0, 'max': 5, 'mean': 0.5}",,,,,
286,,html-keyboard-response,286,242293,0.0-3.1-26.1,,<div class = centerbox><div class = fixation>+</div></div>,,test_fixation,500.0,,test,1.0,500.0,,,,,,,,,,,,,,,,,,,
287,,poldracklab-stop-signal,287,243798,0.0-3.1-27.1,,<div class = centerbox><div class = cue-text><img class = center src='/static/experiments/stop_signal_rdoc/images/square.png'></img></div></div>,,test_trial,1500.0,,test,1.0,1000.0,False,<img class = center src='/static/experiments/stop_signal_rdoc/images/stopSignal.png'></img>,go,500.0,1000.0,"[',', '.']",,square,.,9.0,go,,1,,0.0,,,,
288,,html-keyboard-response,288,244291,0.0-3.1-28.1,,<div class = centerbox><div class = fixation>+</div></div>,,test_ITI,486.8262622498239,,test,1.0,486.8262622498239,,,,,,,,,,,,,,"{'min': 0, 'max': 5, 'mean': 0.5}",,,,,
289,,html-keyboard-response,289,244797,0.0-3.1-29.1,,<div class = centerbox><div class = fixation>+</div></div>,,test_fixation,500.0,,test,1.0,500.0,,,,,,,,,,,,,,,,,,,
290,,poldracklab-stop-signal,290,246302,0.0-3.1-30.1,,<div class = centerbox><div class = cue-text><img class = center src='/static/experiments/stop_signal_rdoc/images/square.png'></img></div></div>,,test_trial,1500.0,,test,1.0,1000.0,False,<img class = center src='/static/experiments/stop_signal_rdoc/images/stopSignal.png'></img>,go,500.0,1000.0,"[',', '.']",,square,.,10.0,go,,1,,0.0,,,,
291,,html-keyboard-response,291,246373,0.0-3.1-31.1,,<div class = centerbox><div class = fixation>+</div></div>,,test_ITI,69.98595566061788,,test,1.0,69.98595566061788,,,,,,,,,,,,,,"{'min': 0, 'max': 5, 'mean': 0.5}",,,,,
292,,html-keyboard-response,292,246879,0.0-3.1-32.1,,<div class = centerbox><div class = fixation>+</div></div>,,test_fixation,500.0,,test,1.0,500.0,,,,,,,,,,,,,,,,,,,
293,,poldracklab-stop-signal,293,248383,0.0-3.1-33.1,,<div class = centerbox><div class = cue-text><img class = center src='/static/experiments/stop_signal_rdoc/images/square.png'></img></div></div>,,test_trial,1500.0,,test,1.0,1000.0,False,<img class = center src='/static/experiments/stop_signal_rdoc/images/stopSignal.png'></img>,stop,500.0,1000.0,"[',', '.']",,square,,11.0,stop,,1,,,,,,
294,,html-keyboard-response,294,248492,0.0-3.1-34.1,,<div class = centerbox><div class = fixation>+</div></div>,,test_ITI,103.58194900593986,,test,1.0,103.58194900593986,,,,,,,,,,,,,,"{'min': 0, 'max': 5, 'mean': 0.5}",,,,,
295,,html-keyboard-response,295,248998,0.0-3.1-35.1,,<div class = centerbox><div class = fixation>+</div></div>,,test_fixation,500.0,,test,1.0,500.0,,,,,,,,,,,,,,,,,,,
296,,poldracklab-stop-signal,296,250500,0.0-3.1-36.1,,<div class = centerbox><div class = cue-text><img class = center src='/static/experiments/stop_signal_rdoc/images/square.png'></img></div></div>,,test_trial,1500.0,,test,1.0,1000.0,False,<img class = center src='/static/experiments/stop_signal_rdoc/images/stopSignal.png'></img>,stop,500.0,1000.0,"[',', '.']",,square,,12.0,stop,,1,,,,,,
297,,html-keyboard-response,297,250531,0.0-3.1-37.1,,<div class = centerbox><div class = fixation>+</div></div>,,test_ITI,25.58350847114511,,test,1.0,25.58350847114511,,,,,,,,,,,,,,"{'min': 0, 'max': 5, 'mean': 0.5}",,,,,
298,,html-keyboard-response,298,251036,0.0-3.1-38.1,,<div class = centerbox><div class = fixation>+</div></div>,,test_fixation,500.0,,test,1.0,500.0,,,,,,,,,,,,,,,,,,,
299,,poldracklab-stop-signal,299,252542,0.0-3.1-39.1,,<div class = centerbox><div class = cue-text><img class = center src='/static/experiments/stop_signal_rdoc/images/square.png'></img></div></div>,,test_trial,1500.0,,test,1.0,1000.0,False,<img class = center src='/static/experiments/stop_signal_rdoc/images/stopSignal.png'></img>,stop,500.0,1000.0,"[',', '.']",,square,,13.0,stop,,1,,,,,,
300,,html-keyboard-response,300,253407,0.0-3.1-40.1,,<div class = centerbox><div class = fixation>+</div></div>,,test_ITI,862.2708412917511,,test,1.0,862.2708412917511,,,,,,,,,,,,,,"{'min': 0, 'max': 5, 'mean': 0.5}",,,,,
301,,html-keyboard-response,301,253913,0.0-3.1-41.1,,<div class = centerbox><div class = fixation>+</div></div>,,test_fixation,500.0,,test,1.0,500.0,,,,,,,,,,,,,,,,,,,
302,,poldracklab-stop-signal,302,255418,0.0-3.1-42.1,,<div class = centerbox><div class = cue-text><img class = center src='/static/experiments/stop_signal_rdoc/images/circle.png'></img></div></div>,,test_trial,1500.0,,test,1.0,1000.0,False,<img class = center src='/static/experiments/stop_signal_rdoc/images/stopSignal.png'></img>,go,500.0,1000.0,"[',', '.']",,circle,",",14.0,go,,1,,0.0,,,,
303,,html-keyboard-response,303,256228,0.0-3.1-43.1,,<div class = centerbox><div class = fixation>+</div></div>,,test_ITI,809.4406123816619,,test,1.0,809.4406123816619,,,,,,,,,,,,,,"{'min': 0, 'max': 5, 'mean': 0.5}",,,,,
304,,html-keyboard-response,304,256735,0.0-3.1-44.1,,<div class = centerbox><div class = fixation>+</div></div>,,test_fixation,500.0,,test,1.0,500.0,,,,,,,,,,,,,,,,,,,
305,,poldracklab-stop-signal,305,258238,0.0-3.1-45.1,,<div class = centerbox><div class = cue-text><img class = center src='/static/experiments/stop_signal_rdoc/images/circle.png'></img></div></div>,,test_trial,1500.0,,test,1.0,1000.0,False,<img class = center src='/static/experiments/stop_signal_rdoc/images/stopSignal.png'></img>,stop,500.0,1000.0,"[',', '.']",,circle,,15.0,stop,,1,,,,,,
306,,html-keyboard-response,306,258853,0.0-3.1-46.1,,<div class = centerbox><div class = fixation>+</div></div>,,test_ITI,612.332402184891,,test,1.0,612.332402184891,,,,,,,,,,,,,,"{'min': 0, 'max': 5, 'mean': 0.5}",,,,,
307,,html-keyboard-response,307,259359,0.0-3.1-47.1,,<div class = centerbox><div class = fixation>+</div></div>,,test_fixation,500.0,,test,1.0,500.0,,,,,,,,,,,,,,,,,,,
308,,poldracklab-stop-signal,308,260865,0.0-3.1-48.1,,<div class = centerbox><div class = cue-text><img class = center src='/static/experiments/stop_signal_rdoc/images/square.png'></img></div></div>,,test_trial,1500.0,,test,1.0,1000.0,False,<img class = center src='/static/experiments/stop_signal_rdoc/images/stopSignal.png'></img>,go,500.0,1000.0,"[',', '.']",,square,.,16.0,go,,1,,0.0,,,,
309,,html-keyboard-response,309,261157,0.0-3.1-49.1,,<div class = centerbox><div class = fixation>+</div></div>,,test_ITI,285.80369735570684,,test,1.0,285.80369735570684,,,,,,,,,,,,,,"{'min': 0, 'max': 5, 'mean': 0.5}",,,,,
310,,html-keyboard-response,310,261663,0.0-3.1-50.1,,<div class = centerbox><div class = fixation>+</div></div>,,test_fixation,500.0,,test,1.0,500.0,,,,,,,,,,,,,,,,,,,
311,,poldracklab-stop-signal,311,263170,0.0-3.1-51.1,,<div class = centerbox><div class = cue-text><img class = center src='/static/experiments/stop_signal_rdoc/images/square.png'></img></div></div>,,test_trial,1500.0,,test,1.0,1000.0,False,<img class = center src='/static/experiments/stop_signal_rdoc/images/stopSignal.png'></img>,go,500.0,1000.0,"[',', '.']",,square,.,17.0,go,,1,,0.0,,,,
312,,html-keyboard-response,312,263215,0.0-3.1-52.1,,<div class = centerbox><div class = fixation>+</div></div>,,test_ITI,42.87614890496058,,test,1.0,42.87614890496058,,,,,,,,,,,,,,"{'min': 0, 'max': 5, 'mean': 0.5}",,,,,
313,,html-keyboard-response,313,263719,0.0-3.1-53.1,,<div class = centerbox><div class = fixation>+</div></div>,,test_fixation,500.0,,test,1.0,500.0,,,,,,,,,,,,,,,,,,,
314,,poldracklab-stop-signal,314,265225,0.0-3.1-54.1,,<div class = centerbox><div class = cue-text><img class = center src='/static/experiments/stop_signal_rdoc/images/square.png'></img></div></div>,,test_trial,1500.0,,test,1.0,1000.0,False,<img class = center src='/static/experiments/stop_signal_rdoc/images/stopSignal.png'></img>,go,500.0,1000.0,"[',', '.']",,square,.,18.0,go,,1,,0.0,,,,
315,,html-keyboard-response,315,265881,0.0-3.1-55.1,,<div class = centerbox><div class = fixation>+</div></div>,,test_ITI,652.7141014371864,,test,1.0,652.7141014371864,,,,,,,,,,,,,,"{'min': 0, 'max': 5, 'mean': 0.5}",,,,,
316,,html-keyboard-response,316,266386,0.0-3.1-56.1,,<div class = centerbox><div class = fixation>+</div></div>,,test_fixation,500.0,,test,1.0,500.0,,,,,,,,,,,,,,,,,,,
317,,poldracklab-stop-signal,317,267892,0.0-3.1-57.1,,<div class = centerbox><div class = cue-text><img class = center src='/static/experiments/stop_signal_rdoc/images/circle.png'></img></div></div>,,test_trial,1500.0,,test,1.0,1000.0,False,<img class = center src='/static/experiments/stop_signal_rdoc/images/stopSignal.png'></img>,go,500.0,1000.0,"[',', '.']",,circle,",",19.0,go,,1,,0.0,,,,
318,,html-keyboard-response,318,267898,0.0-3.1-58.1,,<div class = centerbox><div class = fixation>+</div></div>,,test_ITI,3.1418769376537115,,test,1.0,3.1418769376537115,,,,,,,,,,,,,,"{'min': 0, 'max': 5, 'mean': 0.5}",,,,,
319,,html-keyboard-response,319,268404,0.0-3.1-59.1,,<div class = centerbox><div class = fixation>+</div></div>,,test_fixation,500.0,,test,1.0,500.0,,,,,,,,,,,,,,,,,,,
320,,poldracklab-stop-signal,320,269911,0.0-3.1-60.1,,<div class = centerbox><div class = cue-text><img class = center src='/static/experiments/stop_signal_rdoc/images/circle.png'></img></div></div>,,test_trial,1500.0,,test,1.0,1000.0,False,<img class = center src='/static/experiments/stop_signal_rdoc/images/stopSignal.png'></img>,go,500.0,1000.0,"[',', '.']",,circle,",",20.0,go,,1,,0.0,,,,
321,,html-keyboard-response,321,270476,0.0-3.1-61.1,,<div class = centerbox><div class = fixation>+</div></div>,,test_ITI,562.5147572734518,,test,1.0,562.5147572734518,,,,,,,,,,,,,,"{'min': 0, 'max': 5, 'mean': 0.5}",,,,,
322,,html-keyboard-response,322,270980,0.0-3.1-62.1,,<div class = centerbox><div class = fixation>+</div></div>,,test_fixation,500.0,,test,1.0,500.0,,,,,,,,,,,,,,,,,,,
323,,poldracklab-stop-signal,323,272487,0.0-3.1-63.1,,<div class = centerbox><div class = cue-text><img class = center src='/static/experiments/stop_signal_rdoc/images/square.png'></img></div></div>,,test_trial,1500.0,,test,1.0,1000.0,False,<img class = center src='/static/experiments/stop_signal_rdoc/images/stopSignal.png'></img>,go,500.0,1000.0,"[',', '.']",,square,.,21.0,go,,1,,0.0,,,,
324,,html-keyboard-response,324,273604,0.0-3.1-64.1,,<div class = centerbox><div class = fixation>+</div></div>,,test_ITI,1115.5879964052588,,test,1.0,1115.5879964052588,,,,,,,,,,,,,,"{'min': 0, 'max': 5, 'mean': 0.5}",,,,,
325,,html-keyboard-response,325,274111,0.0-3.1-65.1,,<div class = centerbox><div class = fixation>+</div></div>,,test_fixation,500.0,,test,1.0,500.0,,,,,,,,,,,,,,,,,,,
326,,poldracklab-stop-signal,326,275618,0.0-3.1-66.1,,<div class = centerbox><div class = cue-text><img class = center src='/static/experiments/stop_signal_rdoc/images/circle.png'></img></div></div>,,test_trial,1500.0,,test,1.0,1000.0,False,<img class = center src='/static/experiments/stop_signal_rdoc/images/stopSignal.png'></img>,stop,500.0,1000.0,"[',', '.']",,circle,,22.0,stop,,1,,,,,,
327,,html-keyboard-response,327,276447,0.0-3.1-67.1,,<div class = centerbox><div class = fixation>+</div></div>,,test_ITI,823.3655016819149,,test,1.0,823.3655016819149,,,,,,,,,,,,,,"{'min': 0, 'max': 5, 'mean': 0.5}",,,,,
328,,html-keyboard-response,328,276953,0.0-3.1-68.1,,<div class = centerbox><div class = fixation>+</div></div>,,test_fixation,500.0,,test,1.0,500.0,,,,,,,,,,,,,,,,,,,
329,,poldracklab-stop-signal,329,278460,0.0-3.1-69.1,,<div class = centerbox><div class = cue-text><img class = center src='/static/experiments/stop_signal_rdoc/images/square.png'></img></div></div>,,test_trial,1500.0,,test,1.0,1000.0,False,<img class = center src='/static/experiments/stop_signal_rdoc/images/stopSignal.png'></img>,stop,500.0,1000.0,"[',', '.']",,square,,23.0,stop,,1,,,,,,
330,,html-keyboard-response,330,278543,0.0-3.1-70.1,,<div class = centerbox><div class = fixation>+</div></div>,,test_ITI,77.09825248974266,,test,1.0,77.09825248974266,,,,,,,,,,,,,,"{'min': 0, 'max': 5, 'mean': 0.5}",,,,,
331,,html-keyboard-response,331,279050,0.0-3.1-71.1,,<div class = centerbox><div class = fixation>+</div></div>,,test_fixation,500.0,,test,1.0,500.0,,,,,,,,,,,,,,,,,,,
332,,poldracklab-stop-signal,332,280556,0.0-3.1-72.1,,<div class = centerbox><div class = cue-text><img class = center src='/static/experiments/stop_signal_rdoc/images/square.png'></img></div></div>,,test_trial,1500.0,,test,1.0,1000.0,False,<img class = center src='/static/experiments/stop_signal_rdoc/images/stopSignal.png'></img>,go,500.0,1000.0,"[',', '.']",,square,.,24.0,go,,1,,0.0,,,,
333,,html-keyboard-response,333,280991,0.0-3.1-73.1,,<div class = centerbox><div class = fixation>+</div></div>,,test_ITI,433.88032365303206,,test,1.0,433.88032365303206,,,,,,,,,,,,,,"{'min': 0, 'max': 5, 'mean': 0.5}",,,,,
334,,html-keyboard-response,334,281497,0.0-3.1-74.1,,<div class = centerbox><div class = fixation>+</div></div>,,test_fixation,500.0,,test,1.0,500.0,,,,,,,,,,,,,,,,,,,
335,,poldracklab-stop-signal,335,283002,0.0-3.1-75.1,,<div class = centerbox><div class = cue-text><img class = center src='/static/experiments/stop_signal_rdoc/images/circle.png'></img></div></div>,,test_trial,1500.0,,test,1.0,1000.0,False,<img class = center src='/static/experiments/stop_signal_rdoc/images/stopSignal.png'></img>,go,500.0,1000.0,"[',', '.']",,circle,",",25.0,go,,1,,0.0,,,,
336,,html-keyboard-response,336,283142,0.0-3.1-76.1,,<div class = centerbox><div class = fixation>+</div></div>,,test_ITI,136.02608013814483,,test,1.0,136.02608013814483,,,,,,,,,,,,,,"{'min': 0, 'max': 5, 'mean': 0.5}",,,,,
337,,html-keyboard-response,337,283644,0.0-3.1-77.1,,<div class = centerbox><div class = fixation>+</div></div>,,test_fixation,500.0,,test,1.0,500.0,,,,,,,,,,,,,,,,,,,
338,,poldracklab-stop-signal,338,285151,0.0-3.1-78.1,,<div class = centerbox><div class = cue-text><img class = center src='/static/experiments/stop_signal_rdoc/images/square.png'></img></div></div>,,test_trial,1500.0,,test,1.0,1000.0,False,<img class = center src='/static/experiments/stop_signal_rdoc/images/stopSignal.png'></img>,go,500.0,1000.0,"[',', '.']",,square,.,26.0,go,,1,,0.0,,,,
339,,html-keyboard-response,339,286821,0.0-3.1-79.1,,<div class = centerbox><div class = fixation>+</div></div>,,test_ITI,1667.6576318615885,,test,1.0,1667.6576318615885,,,,,,,,,,,,,,"{'min': 0, 'max': 5, 'mean': 0.5}",,,,,
340,,html-keyboard-response,340,287328,0.0-3.1-80.1,,<div class = centerbox><div class = fixation>+</div></div>,,test_fixation,500.0,,test,1.0,500.0,,,,,,,,,,,,,,,,,,,
341,,poldracklab-stop-signal,341,288836,0.0-3.1-81.1,,<div class = centerbox><div class = cue-text><img class = center src='/static/experiments/stop_signal_rdoc/images/circle.png'></img></div></div>,,test_trial,1500.0,,test,1.0,1000.0,False,<img class = center src='/static/experiments/stop_signal_rdoc/images/stopSignal.png'></img>,go,500.0,1000.0,"[',', '.']",,circle,",",27.0,go,,1,,0.0,,,,
342,,html-keyboard-response,342,289379,0.0-3.1-82.1,,<div class = centerbox><div class = fixation>+</div></div>,,test_ITI,538.4954787184689,,test,1.0,538.4954787184689,,,,,,,,,,,,,,"{'min': 0, 'max': 5, 'mean': 0.5}",,,,,
343,,html-keyboard-response,343,289886,0.0-3.1-83.1,,<div class = centerbox><div class = fixation>+</div></div>,,test_fixation,500.0,,test,1.0,500.0,,,,,,,,,,,,,,,,,,,
344,,poldracklab-stop-signal,344,291391,0.0-3.1-84.1,,<div class = centerbox><div class = cue-text><img class = center src='/static/experiments/stop_signal_rdoc/images/square.png'></img></div></div>,,test_trial,1500.0,,test,1.0,1000.0,False,<img class = center src='/static/experiments/stop_signal_rdoc/images/stopSignal.png'></img>,stop,500.0,1000.0,"[',', '.']",,square,,28.0,stop,,1,,,,,,
345,,html-keyboard-response,345,291946,0.0-3.1-85.1,,<div class = centerbox><div class = fixation>+</div></div>,,test_ITI,548.1961597713803,,test,1.0,548.1961597713803,,,,,,,,,,,,,,"{'min': 0, 'max': 5, 'mean': 0.5}",,,,,
346,,html-keyboard-response,346,292453,0.0-3.1-86.1,,<div class = centerbox><div class = fixation>+</div></div>,,test_fixation,500.0,,test,1.0,500.0,,,,,,,,,,,,,,,,,,,
347,,poldracklab-stop-signal,347,293958,0.0-3.1-87.1,,<div class = centerbox><div class = cue-text><img class = center src='/static/experiments/stop_signal_rdoc/images/circle.png'></img></div></div>,,test_trial,1500.0,,test,1.0,1000.0,False,<img class = center src='/static/experiments/stop_signal_rdoc/images/stopSignal.png'></img>,go,500.0,1000.0,"[',', '.']",,circle,",",29.0,go,,1,,0.0,,,,
348,,html-keyboard-response,348,295615,0.0-3.1-88.1,,<div class = centerbox><div class = fixation>+</div></div>,,test_ITI,1651.0942641152874,,test,1.0,1651.0942641152874,,,,,,,,,,,,,,"{'min': 0, 'max': 5, 'mean': 0.5}",,,,,
349,,html-keyboard-response,349,296121,0.0-3.1-89.1,,<div class = centerbox><div class = fixation>+</div></div>,,test_fixation,500.0,,test,1.0,500.0,,,,,,,,,,,,,,,,,,,
