,success,trial_type,trial_index,time_elapsed,internal_node_id,rt,stimulus,response,trial_id,trial_duration,view_history,exp_stage,block_num,stimulus_duration,condition,stim_color,stim_word,correct_response,choices,correct_trial,ITIParams,current_question,current_key_answer,exp_id,attention_check_percent
0,True,fullscreen,0,2592,0.0-0.0,,,,,,,,,,,,,,,,,,,,
1,,html-keyboard-response,1,2753,0.0-1.0-0.0,158.0,"<div class = centerbox><p class = center-block-text>
    
  <p class=""center-block-text"">
    Welcome! This experiment will take around 7 minutes.
  </p>
  <p class=""center-block-text"">
    To avoid technical issues, please keep the experiment tab (on Chrome or Firefox) active and in fullscreen mode for the whole duration of each task.
  </p>
  <p class=""center-block-text""> Press <i>enter</i> to begin.</p>

    </p></div>",enter,instruction_feedback,180000.0,,,,,,,,,,,,,,,
2,,instructions,2,4277,0.0-1.0-1.0,1522.0,,,instructions,,"[{'page_index': 0, 'viewing_time': 1158}, {'page_index': 1, 'viewing_time': 363}]",,,,,,,,,,,,,,
3,,html-keyboard-response,3,4858,0.0-2.0-0.0,580.0,"<div class = bigbox><div class = picture_box><p class = block-text>
    <div class = centerbox><p class = center-block-text>Press <i>enter</i> to begin practice.</p></div>
    </font></p></div></div>",enter,practice_feedback,60000.0,,practice,0.0,,,,,,,,,,,,
4,,html-keyboard-response,4,6370,0.0-2.0-1.0,,"<div class=""centerbox""><div class=""fixation"">+</div></div>",,practice_fixation,500.0,,practice,0.0,500.0,,,,,,,,,,,
5,,html-keyboard-response,5,7875,0.0-2.0-2.0,1111.0,"<div class = centerbox><div class = stroop-stim style = ""color:#70FF70"">green</div></div>",/,practice_trial,1500.0,,practice,0.0,1000.0,congruent,green,green,/,"['.', ',', '/']",1,,,,,
6,,html-keyboard-response,6,8382,0.0-2.0-3.0,,<div class = fb_box><div class = center-text><font size =20>Correct!</font></div></div>,,practice_feedback,500.0,,practice,0.0,500.0,,,,,,,,,,,
7,,html-keyboard-response,7,8574,0.0-2.0-4.0,,<div class = centerbox><div class = fixation>+</div></div>,,practice_ITI,190.8252003885666,,practice,0.0,190.8252003885666,,,,,,,"{'min': 0, 'max': 5, 'mean': 0.5}",,,,
8,,html-keyboard-response,8,9078,0.0-2.0-5.0,,"<div class=""centerbox""><div class=""fixation"">+</div></div>",,practice_fixation,500.0,,practice,0.0,500.0,,,,,,,,,,,
9,,html-keyboard-response,9,10581,0.0-2.0-6.0,533.0,"<div class = centerbox><div class = stroop-stim style = ""color:#FF7070"">blue</div></div>",.,practice_trial,1500.0,,practice,0.0,1000.0,incongruent,red,blue,.,"['.', ',', '/']",1,,,,,
10,,html-keyboard-response,10,11086,0.0-2.0-7.0,,<div class = fb_box><div class = center-text><font size =20>Correct!</font></div></div>,,practice_feedback,500.0,,practice,0.0,500.0,,,,,,,,,,,
11,,html-keyboard-response,11,11816,0.0-2.0-8.0,,<div class = centerbox><div class = fixation>+</div></div>,,practice_ITI,724.0242000911693,,practice,0.0,724.0242000911693,,,,,,,"{'min': 0, 'max': 5, 'mean': 0.5}",,,,
12,,html-keyboard-response,12,12318,0.0-2.0-9.0,,"<div class=""centerbox""><div class=""fixation"">+</div></div>",,practice_fixation,500.0,,practice,0.0,500.0,,,,,,,,,,,
13,,html-keyboard-response,13,13824,0.0-2.0-10.0,502.0,"<div class = centerbox><div class = stroop-stim style = ""color:#70FF70"">red</div></div>",/,practice_trial,1500.0,,practice,0.0,1000.0,incongruent,green,red,/,"['.', ',', '/']",1,,,,,
14,,html-keyboard-response,14,14328,0.0-2.0-11.0,,<div class = fb_box><div class = center-text><font size =20>Correct!</font></div></div>,,practice_feedback,500.0,,practice,0.0,500.0,,,,,,,,,,,
15,,html-keyboard-response,15,14717,0.0-2.0-12.0,,<div class = centerbox><div class = fixation>+</div></div>,,practice_ITI,385.662796088281,,practice,0.0,385.662796088281,,,,,,,"{'min': 0, 'max': 5, 'mean': 0.5}",,,,
16,,html-keyboard-response,16,15223,0.0-2.0-13.0,,"<div class=""centerbox""><div class=""fixation"">+</div></div>",,practice_fixation,500.0,,practice,0.0,500.0,,,,,,,,,,,
17,,html-keyboard-response,17,16730,0.0-2.0-14.0,583.0,"<div class = centerbox><div class = stroop-stim style = ""color:#FF7070"">red</div></div>",.,practice_trial,1500.0,,practice,0.0,1000.0,congruent,red,red,.,"['.', ',', '/']",1,,,,,
18,,html-keyboard-response,18,17235,0.0-2.0-15.0,,<div class = fb_box><div class = center-text><font size =20>Correct!</font></div></div>,,practice_feedback,500.0,,practice,0.0,500.0,,,,,,,,,,,
19,,html-keyboard-response,19,17502,0.0-2.0-16.0,,<div class = centerbox><div class = fixation>+</div></div>,,practice_ITI,260.618866450654,,practice,0.0,260.618866450654,,,,,,,"{'min': 0, 'max': 5, 'mean': 0.5}",,,,
20,,html-keyboard-response,20,19898,0.0-3.0-0.0,2394.0,"<div class = bigbox><div class = picture_box><p class = block-text>
    
      <div class=""centerbox"">
        <p class=""center-block-text"">We will now start the test portion.</p>
        <p class=""block-text"">Keep your <b>middle finger</b> on the <b>period key (.)</b>, your <b>index finger</b> on the <b>comma key (,)</b>, and your <b>ring finger</b> on the <b>period key (.)</b></p>
        <p class=""block-text"">Press <i>enter</i> to continue.</p>
      </div>
    </font></p></div></div>",enter,test_feedback,60000.0,,test,0.0,,,,,,,,,,,,
21,,html-keyboard-response,21,21898,0.0-3.0-1.0-0.0,992.0,,k,test_attention_check,,,test,0.0,,,,,,,False,,<p class='block-text'>Press the key for the third letter of the English alphabet.</p> <div class=block-text>This screen will advance automatically in 1 minute.</div>,67.0,,
22,,html-keyboard-response,22,22401,0.0-3.0-2.0,,"<div class=""centerbox""><div class=""fixation"">+</div></div>",,test_fixation,500.0,,test,0.0,500.0,,,,,,,,,,,
23,,html-keyboard-response,23,23907,0.0-3.0-3.0,623.0,"<div class = centerbox><div class = stroop-stim style = ""color:#70FF70"">green</div></div>",/,test_trial,1500.0,,test,0.0,1000.0,congruent,green,green,/,"['.', ',', '/']",1,,,,,
24,,html-keyboard-response,24,24255,0.0-3.0-4.0,,<div class = centerbox><div class = fixation>+</div></div>,,test_ITI,341.68832452602356,,test,0.0,341.68832452602356,,,,,,,"{'min': 0, 'max': 5, 'mean': 0.5}",,,,
25,,html-keyboard-response,25,24759,0.0-3.0-5.0,,"<div class=""centerbox""><div class=""fixation"">+</div></div>",,test_fixation,500.0,,test,0.0,500.0,,,,,,,,,,,
26,,html-keyboard-response,26,26263,0.0-3.0-6.0,,"<div class = centerbox><div class = stroop-stim style = ""color:#7070FF"">green</div></div>",,test_trial,1500.0,,test,0.0,1000.0,incongruent,blue,green,",","['.', ',', '/']",0,,,,,
27,,html-keyboard-response,27,26637,0.0-3.0-7.0,,<div class = centerbox><div class = fixation>+</div></div>,,test_ITI,369.59767301571594,,test,0.0,369.59767301571594,,,,,,,"{'min': 0, 'max': 5, 'mean': 0.5}",,,,
28,,html-keyboard-response,28,27142,0.0-3.0-8.0,,"<div class=""centerbox""><div class=""fixation"">+</div></div>",,test_fixation,500.0,,test,0.0,500.0,,,,,,,,,,,
29,,html-keyboard-response,29,28646,0.0-3.0-9.0,,"<div class = centerbox><div class = stroop-stim style = ""color:#70FF70"">blue</div></div>",,test_trial,1500.0,,test,0.0,1000.0,incongruent,green,blue,/,"['.', ',', '/']",0,,,,,
30,,html-keyboard-response,30,28957,0.0-3.0-10.0,,<div class = centerbox><div class = fixation>+</div></div>,,test_ITI,309.9158610621207,,test,0.0,309.9158610621207,,,,,,,"{'min': 0, 'max': 5, 'mean': 0.5}",,,,
31,,html-keyboard-response,31,29461,0.0-3.0-11.0,,"<div class=""centerbox""><div class=""fixation"">+</div></div>",,test_fixation,500.0,,test,0.0,500.0,,,,,,,,,,,
32,,html-keyboard-response,32,30966,0.0-3.0-12.0,,"<div class = centerbox><div class = stroop-stim style = ""color:#70FF70"">green</div></div>",,test_trial,1500.0,,test,0.0,1000.0,congruent,green,green,/,"['.', ',', '/']",0,,,,,
33,,html-keyboard-response,33,31235,0.0-3.0-13.0,,<div class = centerbox><div class = fixation>+</div></div>,,test_ITI,265.406940300177,,test,0.0,265.406940300177,,,,,,,"{'min': 0, 'max': 5, 'mean': 0.5}",,,,
34,,html-keyboard-response,34,31742,0.0-3.0-14.0,,"<div class=""centerbox""><div class=""fixation"">+</div></div>",,test_fixation,500.0,,test,0.0,500.0,,,,,,,,,,,
35,,html-keyboard-response,35,33249,0.0-3.0-15.0,405.0,"<div class = centerbox><div class = stroop-stim style = ""color:#FF7070"">blue</div></div>",.,test_trial,1500.0,,test,0.0,1000.0,incongruent,red,blue,.,"['.', ',', '/']",1,,,,,
36,,html-keyboard-response,36,33692,0.0-3.0-16.0,,<div class = centerbox><div class = fixation>+</div></div>,,test_ITI,440.6100648952204,,test,0.0,440.6100648952204,,,,,,,"{'min': 0, 'max': 5, 'mean': 0.5}",,,,
37,,html-keyboard-response,37,34198,0.0-3.0-17.0,,"<div class=""centerbox""><div class=""fixation"">+</div></div>",,test_fixation,500.0,,test,0.0,500.0,,,,,,,,,,,
38,,html-keyboard-response,38,35705,0.0-3.0-18.0,710.0,"<div class = centerbox><div class = stroop-stim style = ""color:#7070FF"">blue</div></div>",",",test_trial,1500.0,,test,0.0,1000.0,congruent,blue,blue,",","['.', ',', '/']",1,,,,,
39,,html-keyboard-response,39,35868,0.0-3.0-19.0,,<div class = centerbox><div class = fixation>+</div></div>,,test_ITI,158.1013595292941,,test,0.0,158.1013595292941,,,,,,,"{'min': 0, 'max': 5, 'mean': 0.5}",,,,
40,,html-keyboard-response,40,36374,0.0-3.0-20.0,,"<div class=""centerbox""><div class=""fixation"">+</div></div>",,test_fixation,500.0,,test,0.0,500.0,,,,,,,,,,,
41,,html-keyboard-response,41,37881,0.0-3.0-21.0,774.0,"<div class = centerbox><div class = stroop-stim style = ""color:#7070FF"">green</div></div>",",",test_trial,1500.0,,test,0.0,1000.0,incongruent,blue,green,",","['.', ',', '/']",1,,,,,
42,,html-keyboard-response,42,38612,0.0-3.0-22.0,,<div class = centerbox><div class = fixation>+</div></div>,,test_ITI,729.6046893125812,,test,0.0,729.6046893125812,,,,,,,"{'min': 0, 'max': 5, 'mean': 0.5}",,,,
43,,html-keyboard-response,43,39114,0.0-3.0-23.0,,"<div class=""centerbox""><div class=""fixation"">+</div></div>",,test_fixation,500.0,,test,0.0,500.0,,,,,,,,,,,
44,,html-keyboard-response,44,40620,0.0-3.0-24.0,,"<div class = centerbox><div class = stroop-stim style = ""color:#7070FF"">red</div></div>",,test_trial,1500.0,,test,0.0,1000.0,incongruent,blue,red,",","['.', ',', '/']",0,,,,,
45,,html-keyboard-response,45,40626,0.0-3.0-25.0,,<div class = centerbox><div class = fixation>+</div></div>,,test_ITI,0.6957426173208016,,test,0.0,0.6957426173208016,,,,,,,"{'min': 0, 'max': 5, 'mean': 0.5}",,,,
46,,html-keyboard-response,46,41132,0.0-3.0-26.0,,"<div class=""centerbox""><div class=""fixation"">+</div></div>",,test_fixation,500.0,,test,0.0,500.0,,,,,,,,,,,
47,,html-keyboard-response,47,42638,0.0-3.0-27.0,,"<div class = centerbox><div class = stroop-stim style = ""color:#FF7070"">red</div></div>",,test_trial,1500.0,,test,0.0,1000.0,congruent,red,red,.,"['.', ',', '/']",0,,,,,
48,,html-keyboard-response,48,42674,0.0-3.0-28.0,,<div class = centerbox><div class = fixation>+</div></div>,,test_ITI,30.13351562121276,,test,0.0,30.13351562121276,,,,,,,"{'min': 0, 'max': 5, 'mean': 0.5}",,,,
49,,html-keyboard-response,49,43181,0.0-3.0-29.0,,"<div class=""centerbox""><div class=""fixation"">+</div></div>",,test_fixation,500.0,,test,0.0,500.0,,,,,,,,,,,
50,,html-keyboard-response,50,44687,0.0-3.0-30.0,,"<div class = centerbox><div class = stroop-stim style = ""color:#70FF70"">green</div></div>",,test_trial,1500.0,,test,0.0,1000.0,congruent,green,green,/,"['.', ',', '/']",0,,,,,
51,,html-keyboard-response,51,45022,0.0-3.0-31.0,,<div class = centerbox><div class = fixation>+</div></div>,,test_ITI,333.56353075426176,,test,0.0,333.56353075426176,,,,,,,"{'min': 0, 'max': 5, 'mean': 0.5}",,,,
52,,html-keyboard-response,52,45525,0.0-3.0-32.0,,"<div class=""centerbox""><div class=""fixation"">+</div></div>",,test_fixation,500.0,,test,0.0,500.0,,,,,,,,,,,
53,,html-keyboard-response,53,47031,0.0-3.0-33.0,,"<div class = centerbox><div class = stroop-stim style = ""color:#70FF70"">green</div></div>",,test_trial,1500.0,,test,0.0,1000.0,congruent,green,green,/,"['.', ',', '/']",0,,,,,
54,,html-keyboard-response,54,47796,0.0-3.0-34.0,,<div class = centerbox><div class = fixation>+</div></div>,,test_ITI,758.9407232444922,,test,0.0,758.9407232444922,,,,,,,"{'min': 0, 'max': 5, 'mean': 0.5}",,,,
55,,html-keyboard-response,55,48303,0.0-3.0-35.0,,"<div class=""centerbox""><div class=""fixation"">+</div></div>",,test_fixation,500.0,,test,0.0,500.0,,,,,,,,,,,
56,,html-keyboard-response,56,49806,0.0-3.0-36.0,,"<div class = centerbox><div class = stroop-stim style = ""color:#7070FF"">green</div></div>",,test_trial,1500.0,,test,0.0,1000.0,incongruent,blue,green,",","['.', ',', '/']",0,,,,,
57,,html-keyboard-response,57,50003,0.0-3.0-37.0,,<div class = centerbox><div class = fixation>+</div></div>,,test_ITI,191.44064969449326,,test,0.0,191.44064969449326,,,,,,,"{'min': 0, 'max': 5, 'mean': 0.5}",,,,
58,,html-keyboard-response,58,50509,0.0-3.0-38.0,,"<div class=""centerbox""><div class=""fixation"">+</div></div>",,test_fixation,500.0,,test,0.0,500.0,,,,,,,,,,,
59,,html-keyboard-response,59,52015,0.0-3.0-39.0,,"<div class = centerbox><div class = stroop-stim style = ""color:#FF7070"">red</div></div>",,test_trial,1500.0,,test,0.0,1000.0,congruent,red,red,.,"['.', ',', '/']",0,,,,,
60,,html-keyboard-response,60,52211,0.0-3.0-40.0,,<div class = centerbox><div class = fixation>+</div></div>,,test_ITI,190.55935623246424,,test,0.0,190.55935623246424,,,,,,,"{'min': 0, 'max': 5, 'mean': 0.5}",,,,
61,,html-keyboard-response,61,52718,0.0-3.0-41.0,,"<div class=""centerbox""><div class=""fixation"">+</div></div>",,test_fixation,500.0,,test,0.0,500.0,,,,,,,,,,,
62,,html-keyboard-response,62,54225,0.0-3.0-42.0,,"<div class = centerbox><div class = stroop-stim style = ""color:#7070FF"">blue</div></div>",,test_trial,1500.0,,test,0.0,1000.0,congruent,blue,blue,",","['.', ',', '/']",0,,,,,
63,,html-keyboard-response,63,54258,0.0-3.0-43.0,,<div class = centerbox><div class = fixation>+</div></div>,,test_ITI,28.17510002578179,,test,0.0,28.17510002578179,,,,,,,"{'min': 0, 'max': 5, 'mean': 0.5}",,,,
64,,html-keyboard-response,64,54764,0.0-3.0-44.0,,"<div class=""centerbox""><div class=""fixation"">+</div></div>",,test_fixation,500.0,,test,0.0,500.0,,,,,,,,,,,
65,,html-keyboard-response,65,56270,0.0-3.0-45.0,,"<div class = centerbox><div class = stroop-stim style = ""color:#FF7070"">blue</div></div>",,test_trial,1500.0,,test,0.0,1000.0,incongruent,red,blue,.,"['.', ',', '/']",0,,,,,
66,,html-keyboard-response,66,56493,0.0-3.0-46.0,,<div class = centerbox><div class = fixation>+</div></div>,,test_ITI,220.94313427114687,,test,0.0,220.94313427114687,,,,,,,"{'min': 0, 'max': 5, 'mean': 0.5}",,,,
67,,html-keyboard-response,67,57000,0.0-3.0-47.0,,"<div class=""centerbox""><div class=""fixation"">+</div></div>",,test_fixation,500.0,,test,0.0,500.0,,,,,,,,,,,
68,,html-keyboard-response,68,58573,0.0-3.0-48.0,,"<div class = centerbox><div class = stroop-stim style = ""color:#FF7070"">red</div></div>",,test_trial,1500.0,,test,0.0,1000.0,congruent,red,red,.,"['.', ',', '/']",0,,,,,
69,,html-keyboard-response,69,59573,0.0-3.0-49.0,,<div class = centerbox><div class = fixation>+</div></div>,,test_ITI,464.2344005666518,,test,0.0,464.2344005666518,,,,,,,"{'min': 0, 'max': 5, 'mean': 0.5}",,,,
70,,html-keyboard-response,70,60572,0.0-3.0-50.0,,"<div class=""centerbox""><div class=""fixation"">+</div></div>",,test_fixation,500.0,,test,0.0,500.0,,,,,,,,,,,
71,,html-keyboard-response,71,62569,0.0-3.0-51.0,,"<div class = centerbox><div class = stroop-stim style = ""color:#70FF70"">red</div></div>",,test_trial,1500.0,,test,0.0,1000.0,incongruent,green,red,/,"['.', ',', '/']",0,,,,,
72,,html-keyboard-response,72,63568,0.0-3.0-52.0,,<div class = centerbox><div class = fixation>+</div></div>,,test_ITI,717.1923177944599,,test,0.0,717.1923177944599,,,,,,,"{'min': 0, 'max': 5, 'mean': 0.5}",,,,
73,,html-keyboard-response,73,64571,0.0-3.0-53.0,,"<div class=""centerbox""><div class=""fixation"">+</div></div>",,test_fixation,500.0,,test,0.0,500.0,,,,,,,,,,,
74,,html-keyboard-response,74,66573,0.0-3.0-54.0,,"<div class = centerbox><div class = stroop-stim style = ""color:#FF7070"">blue</div></div>",,test_trial,1500.0,,test,0.0,1000.0,incongruent,red,blue,.,"['.', ',', '/']",0,,,,,
75,,html-keyboard-response,75,67573,0.0-3.0-55.0,,<div class = centerbox><div class = fixation>+</div></div>,,test_ITI,213.1204780767649,,test,0.0,213.1204780767649,,,,,,,"{'min': 0, 'max': 5, 'mean': 0.5}",,,,
76,,html-keyboard-response,76,68573,0.0-3.0-56.0,,"<div class=""centerbox""><div class=""fixation"">+</div></div>",,test_fixation,500.0,,test,0.0,500.0,,,,,,,,,,,
77,,html-keyboard-response,77,70569,0.0-3.0-57.0,,"<div class = centerbox><div class = stroop-stim style = ""color:#FF7070"">red</div></div>",,test_trial,1500.0,,test,0.0,1000.0,congruent,red,red,.,"['.', ',', '/']",0,,,,,
78,,html-keyboard-response,78,71571,0.0-3.0-58.0,,<div class = centerbox><div class = fixation>+</div></div>,,test_ITI,108.55084825742509,,test,0.0,108.55084825742509,,,,,,,"{'min': 0, 'max': 5, 'mean': 0.5}",,,,
79,,html-keyboard-response,79,72571,0.0-3.0-59.0,,"<div class=""centerbox""><div class=""fixation"">+</div></div>",,test_fixation,500.0,,test,0.0,500.0,,,,,,,,,,,
80,,html-keyboard-response,80,74572,0.0-3.0-60.0,,"<div class = centerbox><div class = stroop-stim style = ""color:#7070FF"">green</div></div>",,test_trial,1500.0,,test,0.0,1000.0,incongruent,blue,green,",","['.', ',', '/']",0,,,,,
81,,html-keyboard-response,81,75573,0.0-3.0-61.0,,<div class = centerbox><div class = fixation>+</div></div>,,test_ITI,254.1701956502293,,test,0.0,254.1701956502293,,,,,,,"{'min': 0, 'max': 5, 'mean': 0.5}",,,,
82,,html-keyboard-response,82,76573,0.0-3.0-62.0,,"<div class=""centerbox""><div class=""fixation"">+</div></div>",,test_fixation,500.0,,test,0.0,500.0,,,,,,,,,,,
83,,html-keyboard-response,83,78571,0.0-3.0-63.0,,"<div class = centerbox><div class = stroop-stim style = ""color:#7070FF"">red</div></div>",,test_trial,1500.0,,test,0.0,1000.0,incongruent,blue,red,",","['.', ',', '/']",0,,,,,
84,,html-keyboard-response,84,79572,0.0-3.0-64.0,,<div class = centerbox><div class = fixation>+</div></div>,,test_ITI,864.3276778871125,,test,0.0,864.3276778871125,,,,,,,"{'min': 0, 'max': 5, 'mean': 0.5}",,,,
85,,html-keyboard-response,85,80573,0.0-3.0-65.0,,"<div class=""centerbox""><div class=""fixation"">+</div></div>",,test_fixation,500.0,,test,0.0,500.0,,,,,,,,,,,
86,,html-keyboard-response,86,82573,0.0-3.0-66.0,,"<div class = centerbox><div class = stroop-stim style = ""color:#FF7070"">green</div></div>",,test_trial,1500.0,,test,0.0,1000.0,incongruent,red,green,.,"['.', ',', '/']",0,,,,,
87,,html-keyboard-response,87,85573,0.0-3.0-67.0,,<div class = centerbox><div class = fixation>+</div></div>,,test_ITI,2460.930474389344,,test,0.0,2460.930474389344,,,,,,,"{'min': 0, 'max': 5, 'mean': 0.5}",,,,
88,,html-keyboard-response,88,86569,0.0-3.0-68.0,,"<div class=""centerbox""><div class=""fixation"">+</div></div>",,test_fixation,500.0,,test,0.0,500.0,,,,,,,,,,,
89,,html-keyboard-response,89,88569,0.0-3.0-69.0,,"<div class = centerbox><div class = stroop-stim style = ""color:#70FF70"">green</div></div>",,test_trial,1500.0,,test,0.0,1000.0,congruent,green,green,/,"['.', ',', '/']",0,,,,,
90,,html-keyboard-response,90,89571,0.0-3.0-70.0,,<div class = centerbox><div class = fixation>+</div></div>,,test_ITI,256.52668057727976,,test,0.0,256.52668057727976,,,,,,,"{'min': 0, 'max': 5, 'mean': 0.5}",,,,
91,,html-keyboard-response,91,90572,0.0-3.0-71.0,,"<div class=""centerbox""><div class=""fixation"">+</div></div>",,test_fixation,500.0,,test,0.0,500.0,,,,,,,,,,,
92,,html-keyboard-response,92,92569,0.0-3.0-72.0,,"<div class = centerbox><div class = stroop-stim style = ""color:#FF7070"">red</div></div>",,test_trial,1500.0,,test,0.0,1000.0,congruent,red,red,.,"['.', ',', '/']",0,,,,,
93,,html-keyboard-response,93,93572,0.0-3.0-73.0,,<div class = centerbox><div class = fixation>+</div></div>,,test_ITI,463.95395151445905,,test,0.0,463.95395151445905,,,,,,,"{'min': 0, 'max': 5, 'mean': 0.5}",,,,
94,,html-keyboard-response,94,94572,0.0-3.0-74.0,,"<div class=""centerbox""><div class=""fixation"">+</div></div>",,test_fixation,500.0,,test,0.0,500.0,,,,,,,,,,,
95,,html-keyboard-response,95,96573,0.0-3.0-75.0,,"<div class = centerbox><div class = stroop-stim style = ""color:#FF7070"">red</div></div>",,test_trial,1500.0,,test,0.0,1000.0,congruent,red,red,.,"['.', ',', '/']",0,,,,,
96,,html-keyboard-response,96,97572,0.0-3.0-76.0,,<div class = centerbox><div class = fixation>+</div></div>,,test_ITI,219.01234695050755,,test,0.0,219.01234695050755,,,,,,,"{'min': 0, 'max': 5, 'mean': 0.5}",,,,
97,,html-keyboard-response,97,98573,0.0-3.0-77.0,,"<div class=""centerbox""><div class=""fixation"">+</div></div>",,test_fixation,500.0,,test,0.0,500.0,,,,,,,,,,,
98,,html-keyboard-response,98,100569,0.0-3.0-78.0,,"<div class = centerbox><div class = stroop-stim style = ""color:#70FF70"">green</div></div>",,test_trial,1500.0,,test,0.0,1000.0,congruent,green,green,/,"['.', ',', '/']",0,,,,,
99,,html-keyboard-response,99,101573,0.0-3.0-79.0,,<div class = centerbox><div class = fixation>+</div></div>,,test_ITI,291.4121758052405,,test,0.0,291.4121758052405,,,,,,,"{'min': 0, 'max': 5, 'mean': 0.5}",,,,
100,,html-keyboard-response,100,102569,0.0-3.0-80.0,,"<div class=""centerbox""><div class=""fixation"">+</div></div>",,test_fixation,500.0,,test,0.0,500.0,,,,,,,,,,,
101,,html-keyboard-response,101,104573,0.0-3.0-81.0,,"<div class = centerbox><div class = stroop-stim style = ""color:#FF7070"">red</div></div>",,test_trial,1500.0,,test,0.0,1000.0,congruent,red,red,.,"['.', ',', '/']",0,,,,,
102,,html-keyboard-response,102,105571,0.0-3.0-82.0,,<div class = centerbox><div class = fixation>+</div></div>,,test_ITI,684.4967021769913,,test,0.0,684.4967021769913,,,,,,,"{'min': 0, 'max': 5, 'mean': 0.5}",,,,
103,,html-keyboard-response,103,106573,0.0-3.0-83.0,,"<div class=""centerbox""><div class=""fixation"">+</div></div>",,test_fixation,500.0,,test,0.0,500.0,,,,,,,,,,,
104,,html-keyboard-response,104,108573,0.0-3.0-84.0,,"<div class = centerbox><div class = stroop-stim style = ""color:#7070FF"">blue</div></div>",,test_trial,1500.0,,test,0.0,1000.0,congruent,blue,blue,",","['.', ',', '/']",0,,,,,
105,,html-keyboard-response,105,109573,0.0-3.0-85.0,,<div class = centerbox><div class = fixation>+</div></div>,,test_ITI,298.68892755744616,,test,0.0,298.68892755744616,,,,,,,"{'min': 0, 'max': 5, 'mean': 0.5}",,,,
106,,html-keyboard-response,106,110569,0.0-3.0-86.0,,"<div class=""centerbox""><div class=""fixation"">+</div></div>",,test_fixation,500.0,,test,0.0,500.0,,,,,,,,,,,
107,,html-keyboard-response,107,112569,0.0-3.0-87.0,,"<div class = centerbox><div class = stroop-stim style = ""color:#7070FF"">green</div></div>",,test_trial,1500.0,,test,0.0,1000.0,incongruent,blue,green,",","['.', ',', '/']",0,,,,,
108,,html-keyboard-response,108,113572,0.0-3.0-88.0,,<div class = centerbox><div class = fixation>+</div></div>,,test_ITI,780.5369946141349,,test,0.0,780.5369946141349,,,,,,,"{'min': 0, 'max': 5, 'mean': 0.5}",,,,
109,,html-keyboard-response,109,114573,0.0-3.0-89.0,,"<div class=""centerbox""><div class=""fixation"">+</div></div>",,test_fixation,500.0,,test,0.0,500.0,,,,,,,,,,,
110,,html-keyboard-response,110,116572,0.0-3.0-90.0,,"<div class = centerbox><div class = stroop-stim style = ""color:#7070FF"">blue</div></div>",,test_trial,1500.0,,test,0.0,1000.0,congruent,blue,blue,",","['.', ',', '/']",0,,,,,
111,,html-keyboard-response,111,120938,0.0-3.0-91.0,,<div class = centerbox><div class = fixation>+</div></div>,,test_ITI,2385.125497957601,,test,0.0,2385.125497957601,,,,,,,"{'min': 0, 'max': 5, 'mean': 0.5}",,,,
112,,html-keyboard-response,112,121440,0.0-3.0-92.0,,"<div class=""centerbox""><div class=""fixation"">+</div></div>",,test_fixation,500.0,,test,0.0,500.0,,,,,,,,,,,
113,,html-keyboard-response,113,122943,0.0-3.0-93.0,931.0,"<div class = centerbox><div class = stroop-stim style = ""color:#7070FF"">blue</div></div>",",",test_trial,1500.0,,test,0.0,1000.0,congruent,blue,blue,",","['.', ',', '/']",1,,,,,
114,,html-keyboard-response,114,123079,0.0-3.0-94.0,,<div class = centerbox><div class = fixation>+</div></div>,,test_ITI,131.57602754501954,,test,0.0,131.57602754501954,,,,,,,"{'min': 0, 'max': 5, 'mean': 0.5}",,,,
115,,html-keyboard-response,115,123586,0.0-3.0-95.0,,"<div class=""centerbox""><div class=""fixation"">+</div></div>",,test_fixation,500.0,,test,0.0,500.0,,,,,,,,,,,
116,,html-keyboard-response,116,125091,0.0-3.0-96.0,,"<div class = centerbox><div class = stroop-stim style = ""color:#7070FF"">blue</div></div>",,test_trial,1500.0,,test,0.0,1000.0,congruent,blue,blue,",","['.', ',', '/']",0,,,,,
117,,html-keyboard-response,117,125694,0.0-3.0-97.0,,<div class = centerbox><div class = fixation>+</div></div>,,test_ITI,599.5971760362143,,test,0.0,599.5971760362143,,,,,,,"{'min': 0, 'max': 5, 'mean': 0.5}",,,,
118,,html-keyboard-response,118,126195,0.0-3.0-98.0,,"<div class=""centerbox""><div class=""fixation"">+</div></div>",,test_fixation,500.0,,test,0.0,500.0,,,,,,,,,,,
119,,html-keyboard-response,119,127702,0.0-3.0-99.0,,"<div class = centerbox><div class = stroop-stim style = ""color:#FF7070"">blue</div></div>",,test_trial,1500.0,,test,0.0,1000.0,incongruent,red,blue,.,"['.', ',', '/']",0,,,,,
120,,html-keyboard-response,120,128018,0.0-3.0-100.0,,<div class = centerbox><div class = fixation>+</div></div>,,test_ITI,309.3257904228268,,test,0.0,309.3257904228268,,,,,,,"{'min': 0, 'max': 5, 'mean': 0.5}",,,,
121,,html-keyboard-response,121,128524,0.0-3.0-101.0,,"<div class=""centerbox""><div class=""fixation"">+</div></div>",,test_fixation,500.0,,test,0.0,500.0,,,,,,,,,,,
122,,html-keyboard-response,122,130031,0.0-3.0-102.0,,"<div class = centerbox><div class = stroop-stim style = ""color:#FF7070"">blue</div></div>",,test_trial,1500.0,,test,0.0,1000.0,incongruent,red,blue,.,"['.', ',', '/']",0,,,,,
123,,html-keyboard-response,123,130206,0.0-3.0-103.0,,<div class = centerbox><div class = fixation>+</div></div>,,test_ITI,170.27958812976212,,test,0.0,170.27958812976212,,,,,,,"{'min': 0, 'max': 5, 'mean': 0.5}",,,,
124,,html-keyboard-response,124,130707,0.0-3.0-104.0,,"<div class=""centerbox""><div class=""fixation"">+</div></div>",,test_fixation,500.0,,test,0.0,500.0,,,,,,,,,,,
125,,html-keyboard-response,125,132210,0.0-3.0-105.0,,"<div class = centerbox><div class = stroop-stim style = ""color:#FF7070"">red</div></div>",,test_trial,1500.0,,test,0.0,1000.0,congruent,red,red,.,"['.', ',', '/']",0,,,,,
126,,html-keyboard-response,126,132317,0.0-3.0-106.0,,<div class = centerbox><div class = fixation>+</div></div>,,test_ITI,100.36016209186141,,test,0.0,100.36016209186141,,,,,,,"{'min': 0, 'max': 5, 'mean': 0.5}",,,,
127,,html-keyboard-response,127,132819,0.0-3.0-107.0,,"<div class=""centerbox""><div class=""fixation"">+</div></div>",,test_fixation,500.0,,test,0.0,500.0,,,,,,,,,,,
128,,html-keyboard-response,128,134326,0.0-3.0-108.0,,"<div class = centerbox><div class = stroop-stim style = ""color:#70FF70"">blue</div></div>",,test_trial,1500.0,,test,0.0,1000.0,incongruent,green,blue,/,"['.', ',', '/']",0,,,,,
129,,html-keyboard-response,129,134381,0.0-3.0-109.0,,<div class = centerbox><div class = fixation>+</div></div>,,test_ITI,53.666407685692036,,test,0.0,53.666407685692036,,,,,,,"{'min': 0, 'max': 5, 'mean': 0.5}",,,,
130,,html-keyboard-response,130,134883,0.0-3.0-110.0,,"<div class=""centerbox""><div class=""fixation"">+</div></div>",,test_fixation,500.0,,test,0.0,500.0,,,,,,,,,,,
131,,html-keyboard-response,131,136390,0.0-3.0-111.0,,"<div class = centerbox><div class = stroop-stim style = ""color:#70FF70"">green</div></div>",,test_trial,1500.0,,test,0.0,1000.0,congruent,green,green,/,"['.', ',', '/']",0,,,,,
132,,html-keyboard-response,132,137252,0.0-3.0-112.0,,<div class = centerbox><div class = fixation>+</div></div>,,test_ITI,858.3787953056552,,test,0.0,858.3787953056552,,,,,,,"{'min': 0, 'max': 5, 'mean': 0.5}",,,,
133,,html-keyboard-response,133,137757,0.0-3.0-113.0,,"<div class=""centerbox""><div class=""fixation"">+</div></div>",,test_fixation,500.0,,test,0.0,500.0,,,,,,,,,,,
134,,html-keyboard-response,134,139262,0.0-3.0-114.0,,"<div class = centerbox><div class = stroop-stim style = ""color:#7070FF"">blue</div></div>",,test_trial,1500.0,,test,0.0,1000.0,congruent,blue,blue,",","['.', ',', '/']",0,,,,,
135,,html-keyboard-response,135,139322,0.0-3.0-115.0,,<div class = centerbox><div class = fixation>+</div></div>,,test_ITI,55.1672457628866,,test,0.0,55.1672457628866,,,,,,,"{'min': 0, 'max': 5, 'mean': 0.5}",,,,
136,,html-keyboard-response,136,139828,0.0-3.0-116.0,,"<div class=""centerbox""><div class=""fixation"">+</div></div>",,test_fixation,500.0,,test,0.0,500.0,,,,,,,,,,,
137,,html-keyboard-response,137,141331,0.0-3.0-117.0,,"<div class = centerbox><div class = stroop-stim style = ""color:#70FF70"">green</div></div>",,test_trial,1500.0,,test,0.0,1000.0,congruent,green,green,/,"['.', ',', '/']",0,,,,,
138,,html-keyboard-response,138,141416,0.0-3.0-118.0,,<div class = centerbox><div class = fixation>+</div></div>,,test_ITI,81.78831342216968,,test,0.0,81.78831342216968,,,,,,,"{'min': 0, 'max': 5, 'mean': 0.5}",,,,
139,,html-keyboard-response,139,141922,0.0-3.0-119.0,,"<div class=""centerbox""><div class=""fixation"">+</div></div>",,test_fixation,500.0,,test,0.0,500.0,,,,,,,,,,,
140,,html-keyboard-response,140,143425,0.0-3.0-120.0,,"<div class = centerbox><div class = stroop-stim style = ""color:#FF7070"">red</div></div>",,test_trial,1500.0,,test,0.0,1000.0,congruent,red,red,.,"['.', ',', '/']",0,,,,,
141,,html-keyboard-response,141,143535,0.0-3.0-121.0,,<div class = centerbox><div class = fixation>+</div></div>,,test_ITI,104.48946698865166,,test,0.0,104.48946698865166,,,,,,,"{'min': 0, 'max': 5, 'mean': 0.5}",,,,
142,,html-keyboard-response,142,144943,0.0-3.1-0.1,1405.0,"<div class = bigbox><div class = picture_box><p class = block-text>
    <div class = centerbox><p class = block-text>Please take this time to read your feedback! This screen will advance automatically in 1 minute.</p><p class=block-text>You have completed 1 out of 3 blocks of trials.</p>
          <p class=""block-text"">Your accuracy is low. Remember:</p>
          
  <ul class=""list-text"">
    <li><span class=""large"" style=""color:#FF7070"">middle finger</span></li>
    <li><span class=""large"" style=""color:#7070FF"">index finger</span></li>
    <li><span class=""large"" style=""color:#70FF70"">ring finger</span></li>
  </ul>
          <p class=""block-text"">You have not been responding to some trials. Please respond on every trial that requires a response.</p><p class=block-text>Press <i>enter</i> to continue.</p></div>
    </font></p></div></div>",enter,test_feedback,60000.0,,test,1.0,,,,,,,,,,,,
143,,html-keyboard-response,143,146189,0.0-3.1-1.1-0.1,241.0,,enter,test_attention_check,,,test,1.0,,,,,,,False,,<p class='block-text'>Press the K key</p> <div class=block-text>This screen will advance automatically in 1 minute.</div>,75.0,,
144,,html-keyboard-response,144,146693,0.0-3.1-2.1,,"<div class=""centerbox""><div class=""fixation"">+</div></div>",,test_fixation,500.0,,test,1.0,500.0,,,,,,,,,,,
145,,html-keyboard-response,145,148200,0.0-3.1-3.1,,"<div class = centerbox><div class = stroop-stim style = ""color:#70FF70"">red</div></div>",,test_trial,1500.0,,test,1.0,1000.0,incongruent,green,red,/,"['.', ',', '/']",0,,,,,
146,,html-keyboard-response,146,148680,0.0-3.1-4.1,,<div class = centerbox><div class = fixation>+</div></div>,,test_ITI,474.60320253795527,,test,1.0,474.60320253795527,,,,,,,"{'min': 0, 'max': 5, 'mean': 0.5}",,,,
147,,html-keyboard-response,147,149186,0.0-3.1-5.1,,"<div class=""centerbox""><div class=""fixation"">+</div></div>",,test_fixation,500.0,,test,1.0,500.0,,,,,,,,,,,
148,,html-keyboard-response,148,150692,0.0-3.1-6.1,,"<div class = centerbox><div class = stroop-stim style = ""color:#70FF70"">green</div></div>",,test_trial,1500.0,,test,1.0,1000.0,congruent,green,green,/,"['.', ',', '/']",0,,,,,
149,,html-keyboard-response,149,150698,0.0-3.1-7.1,,<div class = centerbox><div class = fixation>+</div></div>,,test_ITI,4.588414757297758,,test,1.0,4.588414757297758,,,,,,,"{'min': 0, 'max': 5, 'mean': 0.5}",,,,
150,,html-keyboard-response,150,151203,0.0-3.1-8.1,,"<div class=""centerbox""><div class=""fixation"">+</div></div>",,test_fixation,500.0,,test,1.0,500.0,,,,,,,,,,,
151,,html-keyboard-response,151,152705,0.0-3.1-9.1,,"<div class = centerbox><div class = stroop-stim style = ""color:#7070FF"">red</div></div>",,test_trial,1500.0,,test,1.0,1000.0,incongruent,blue,red,",","['.', ',', '/']",0,,,,,
152,,html-keyboard-response,152,152857,0.0-3.1-10.1,,<div class = centerbox><div class = fixation>+</div></div>,,test_ITI,146.0578213073891,,test,1.0,146.0578213073891,,,,,,,"{'min': 0, 'max': 5, 'mean': 0.5}",,,,
153,,html-keyboard-response,153,153361,0.0-3.1-11.1,,"<div class=""centerbox""><div class=""fixation"">+</div></div>",,test_fixation,500.0,,test,1.0,500.0,,,,,,,,,,,
154,,html-keyboard-response,154,154866,0.0-3.1-12.1,,"<div class = centerbox><div class = stroop-stim style = ""color:#70FF70"">blue</div></div>",,test_trial,1500.0,,test,1.0,1000.0,incongruent,green,blue,/,"['.', ',', '/']",0,,,,,
155,,html-keyboard-response,155,154922,0.0-3.1-13.1,,<div class = centerbox><div class = fixation>+</div></div>,,test_ITI,50.49783871900967,,test,1.0,50.49783871900967,,,,,,,"{'min': 0, 'max': 5, 'mean': 0.5}",,,,
156,,html-keyboard-response,156,155428,0.0-3.1-14.1,,"<div class=""centerbox""><div class=""fixation"">+</div></div>",,test_fixation,500.0,,test,1.0,500.0,,,,,,,,,,,
157,,html-keyboard-response,157,156930,0.0-3.1-15.1,,"<div class = centerbox><div class = stroop-stim style = ""color:#7070FF"">blue</div></div>",,test_trial,1500.0,,test,1.0,1000.0,congruent,blue,blue,",","['.', ',', '/']",0,,,,,
158,,html-keyboard-response,158,157455,0.0-3.1-16.1,,<div class = centerbox><div class = fixation>+</div></div>,,test_ITI,521.3336120906447,,test,1.0,521.3336120906447,,,,,,,"{'min': 0, 'max': 5, 'mean': 0.5}",,,,
159,,html-keyboard-response,159,157960,0.0-3.1-17.1,,"<div class=""centerbox""><div class=""fixation"">+</div></div>",,test_fixation,500.0,,test,1.0,500.0,,,,,,,,,,,
160,,html-keyboard-response,160,159467,0.0-3.1-18.1,,"<div class = centerbox><div class = stroop-stim style = ""color:#7070FF"">blue</div></div>",,test_trial,1500.0,,test,1.0,1000.0,congruent,blue,blue,",","['.', ',', '/']",0,,,,,
161,,html-keyboard-response,161,160515,0.0-3.1-19.1,,<div class = centerbox><div class = fixation>+</div></div>,,test_ITI,1042.7144126178257,,test,1.0,1042.7144126178257,,,,,,,"{'min': 0, 'max': 5, 'mean': 0.5}",,,,
162,,html-keyboard-response,162,161022,0.0-3.1-20.1,,"<div class=""centerbox""><div class=""fixation"">+</div></div>",,test_fixation,500.0,,test,1.0,500.0,,,,,,,,,,,
163,,html-keyboard-response,163,162528,0.0-3.1-21.1,,"<div class = centerbox><div class = stroop-stim style = ""color:#7070FF"">blue</div></div>",,test_trial,1500.0,,test,1.0,1000.0,congruent,blue,blue,",","['.', ',', '/']",0,,,,,
164,,html-keyboard-response,164,163946,0.0-3.1-22.1,,<div class = centerbox><div class = fixation>+</div></div>,,test_ITI,1412.3189145270321,,test,1.0,1412.3189145270321,,,,,,,"{'min': 0, 'max': 5, 'mean': 0.5}",,,,
165,,html-keyboard-response,165,164450,0.0-3.1-23.1,,"<div class=""centerbox""><div class=""fixation"">+</div></div>",,test_fixation,500.0,,test,1.0,500.0,,,,,,,,,,,
166,,html-keyboard-response,166,165956,0.0-3.1-24.1,,"<div class = centerbox><div class = stroop-stim style = ""color:#70FF70"">red</div></div>",,test_trial,1500.0,,test,1.0,1000.0,incongruent,green,red,/,"['.', ',', '/']",0,,,,,
167,,html-keyboard-response,167,166116,0.0-3.1-25.1,,<div class = centerbox><div class = fixation>+</div></div>,,test_ITI,156.41435560237088,,test,1.0,156.41435560237088,,,,,,,"{'min': 0, 'max': 5, 'mean': 0.5}",,,,
168,,html-keyboard-response,168,166619,0.0-3.1-26.1,,"<div class=""centerbox""><div class=""fixation"">+</div></div>",,test_fixation,500.0,,test,1.0,500.0,,,,,,,,,,,
169,,html-keyboard-response,169,168126,0.0-3.1-27.1,,"<div class = centerbox><div class = stroop-stim style = ""color:#70FF70"">red</div></div>",,test_trial,1500.0,,test,1.0,1000.0,incongruent,green,red,/,"['.', ',', '/']",0,,,,,
170,,html-keyboard-response,170,168158,0.0-3.1-28.1,,<div class = centerbox><div class = fixation>+</div></div>,,test_ITI,27.008007012279553,,test,1.0,27.008007012279553,,,,,,,"{'min': 0, 'max': 5, 'mean': 0.5}",,,,
171,,html-keyboard-response,171,168663,0.0-3.1-29.1,,"<div class=""centerbox""><div class=""fixation"">+</div></div>",,test_fixation,500.0,,test,1.0,500.0,,,,,,,,,,,
172,,html-keyboard-response,172,170170,0.0-3.1-30.1,,"<div class = centerbox><div class = stroop-stim style = ""color:#70FF70"">blue</div></div>",,test_trial,1500.0,,test,1.0,1000.0,incongruent,green,blue,/,"['.', ',', '/']",0,,,,,
173,,html-keyboard-response,173,170675,0.0-3.1-31.1,,<div class = centerbox><div class = fixation>+</div></div>,,test_ITI,499.7277684473237,,test,1.0,499.7277684473237,,,,,,,"{'min': 0, 'max': 5, 'mean': 0.5}",,,,
174,,html-keyboard-response,174,171178,0.0-3.1-32.1,,"<div class=""centerbox""><div class=""fixation"">+</div></div>",,test_fixation,500.0,,test,1.0,500.0,,,,,,,,,,,
175,,html-keyboard-response,175,172680,0.0-3.1-33.1,,"<div class = centerbox><div class = stroop-stim style = ""color:#FF7070"">green</div></div>",,test_trial,1500.0,,test,1.0,1000.0,incongruent,red,green,.,"['.', ',', '/']",0,,,,,
176,,html-keyboard-response,176,172796,0.0-3.1-34.1,,<div class = centerbox><div class = fixation>+</div></div>,,test_ITI,110.23692621198046,,test,1.0,110.23692621198046,,,,,,,"{'min': 0, 'max': 5, 'mean': 0.5}",,,,
177,,html-keyboard-response,177,173300,0.0-3.1-35.1,,"<div class=""centerbox""><div class=""fixation"">+</div></div>",,test_fixation,500.0,,test,1.0,500.0,,,,,,,,,,,
178,,html-keyboard-response,178,174806,0.0-3.1-36.1,,"<div class = centerbox><div class = stroop-stim style = ""color:#FF7070"">blue</div></div>",,test_trial,1500.0,,test,1.0,1000.0,incongruent,red,blue,.,"['.', ',', '/']",0,,,,,
179,,html-keyboard-response,179,174887,0.0-3.1-37.1,,<div class = centerbox><div class = fixation>+</div></div>,,test_ITI,75.6117598272841,,test,1.0,75.6117598272841,,,,,,,"{'min': 0, 'max': 5, 'mean': 0.5}",,,,
180,,html-keyboard-response,180,175392,0.0-3.1-38.1,,"<div class=""centerbox""><div class=""fixation"">+</div></div>",,test_fixation,500.0,,test,1.0,500.0,,,,,,,,,,,
181,,html-keyboard-response,181,176899,0.0-3.1-39.1,,"<div class = centerbox><div class = stroop-stim style = ""color:#FF7070"">red</div></div>",,test_trial,1500.0,,test,1.0,1000.0,congruent,red,red,.,"['.', ',', '/']",0,,,,,
182,,html-keyboard-response,182,177424,0.0-3.1-40.1,,<div class = centerbox><div class = fixation>+</div></div>,,test_ITI,519.3723392318822,,test,1.0,519.3723392318822,,,,,,,"{'min': 0, 'max': 5, 'mean': 0.5}",,,,
183,,html-keyboard-response,183,177931,0.0-3.1-41.1,,"<div class=""centerbox""><div class=""fixation"">+</div></div>",,test_fixation,500.0,,test,1.0,500.0,,,,,,,,,,,
184,,html-keyboard-response,184,179436,0.0-3.1-42.1,,"<div class = centerbox><div class = stroop-stim style = ""color:#70FF70"">red</div></div>",,test_trial,1500.0,,test,1.0,1000.0,incongruent,green,red,/,"['.', ',', '/']",0,,,,,
185,,html-keyboard-response,185,179559,0.0-3.1-43.1,,<div class = centerbox><div class = fixation>+</div></div>,,test_ITI,117.32199925877018,,test,1.0,117.32199925877018,,,,,,,"{'min': 0, 'max': 5, 'mean': 0.5}",,,,
186,,html-keyboard-response,186,180062,0.0-3.1-44.1,,"<div class=""centerbox""><div class=""fixation"">+</div></div>",,test_fixation,500.0,,test,1.0,500.0,,,,,,,,,,,
187,,html-keyboard-response,187,181568,0.0-3.1-45.1,,"<div class = centerbox><div class = stroop-stim style = ""color:#70FF70"">green</div></div>",,test_trial,1500.0,,test,1.0,1000.0,congruent,green,green,/,"['.', ',', '/']",0,,,,,
188,,html-keyboard-response,188,181879,0.0-3.1-46.1,,<div class = centerbox><div class = fixation>+</div></div>,,test_ITI,307.42012455694066,,test,1.0,307.42012455694066,,,,,,,"{'min': 0, 'max': 5, 'mean': 0.5}",,,,
189,,html-keyboard-response,189,182384,0.0-3.1-47.1,,"<div class=""centerbox""><div class=""fixation"">+</div></div>",,test_fixation,500.0,,test,1.0,500.0,,,,,,,,,,,
190,,html-keyboard-response,190,183890,0.0-3.1-48.1,,"<div class = centerbox><div class = stroop-stim style = ""color:#FF7070"">red</div></div>",,test_trial,1500.0,,test,1.0,1000.0,congruent,red,red,.,"['.', ',', '/']",0,,,,,
191,,html-keyboard-response,191,184564,0.0-3.1-49.1,,<div class = centerbox><div class = fixation>+</div></div>,,test_ITI,667.8062646003301,,test,1.0,667.8062646003301,,,,,,,"{'min': 0, 'max': 5, 'mean': 0.5}",,,,
192,,html-keyboard-response,192,185071,0.0-3.1-50.1,,"<div class=""centerbox""><div class=""fixation"">+</div></div>",,test_fixation,500.0,,test,1.0,500.0,,,,,,,,,,,
193,,html-keyboard-response,193,186577,0.0-3.1-51.1,,"<div class = centerbox><div class = stroop-stim style = ""color:#70FF70"">green</div></div>",,test_trial,1500.0,,test,1.0,1000.0,congruent,green,green,/,"['.', ',', '/']",0,,,,,
194,,html-keyboard-response,194,187054,0.0-3.1-52.1,,<div class = centerbox><div class = fixation>+</div></div>,,test_ITI,471.3314304675523,,test,1.0,471.3314304675523,,,,,,,"{'min': 0, 'max': 5, 'mean': 0.5}",,,,
195,,html-keyboard-response,195,187559,0.0-3.1-53.1,,"<div class=""centerbox""><div class=""fixation"">+</div></div>",,test_fixation,500.0,,test,1.0,500.0,,,,,,,,,,,
196,,html-keyboard-response,196,189061,0.0-3.1-54.1,,"<div class = centerbox><div class = stroop-stim style = ""color:#FF7070"">blue</div></div>",,test_trial,1500.0,,test,1.0,1000.0,incongruent,red,blue,.,"['.', ',', '/']",0,,,,,
197,,html-keyboard-response,197,189922,0.0-3.1-55.1,,<div class = centerbox><div class = fixation>+</div></div>,,test_ITI,853.658277925428,,test,1.0,853.658277925428,,,,,,,"{'min': 0, 'max': 5, 'mean': 0.5}",,,,
198,,html-keyboard-response,198,190426,0.0-3.1-56.1,,"<div class=""centerbox""><div class=""fixation"">+</div></div>",,test_fixation,500.0,,test,1.0,500.0,,,,,,,,,,,
199,,html-keyboard-response,199,191931,0.0-3.1-57.1,,"<div class = centerbox><div class = stroop-stim style = ""color:#70FF70"">blue</div></div>",,test_trial,1500.0,,test,1.0,1000.0,incongruent,green,blue,/,"['.', ',', '/']",0,,,,,
200,,html-keyboard-response,200,192087,0.0-3.1-58.1,,<div class = centerbox><div class = fixation>+</div></div>,,test_ITI,153.60879111349396,,test,1.0,153.60879111349396,,,,,,,"{'min': 0, 'max': 5, 'mean': 0.5}",,,,
201,,html-keyboard-response,201,192589,0.0-3.1-59.1,,"<div class=""centerbox""><div class=""fixation"">+</div></div>",,test_fixation,500.0,,test,1.0,500.0,,,,,,,,,,,
202,,html-keyboard-response,202,194091,0.0-3.1-60.1,,"<div class = centerbox><div class = stroop-stim style = ""color:#70FF70"">blue</div></div>",,test_trial,1500.0,,test,1.0,1000.0,incongruent,green,blue,/,"['.', ',', '/']",0,,,,,
203,,html-keyboard-response,203,194352,0.0-3.1-61.1,,<div class = centerbox><div class = fixation>+</div></div>,,test_ITI,254.979153145121,,test,1.0,254.979153145121,,,,,,,"{'min': 0, 'max': 5, 'mean': 0.5}",,,,
204,,html-keyboard-response,204,194858,0.0-3.1-62.1,,"<div class=""centerbox""><div class=""fixation"">+</div></div>",,test_fixation,500.0,,test,1.0,500.0,,,,,,,,,,,
205,,html-keyboard-response,205,196364,0.0-3.1-63.1,,"<div class = centerbox><div class = stroop-stim style = ""color:#7070FF"">red</div></div>",,test_trial,1500.0,,test,1.0,1000.0,incongruent,blue,red,",","['.', ',', '/']",0,,,,,
206,,html-keyboard-response,206,197550,0.0-3.1-64.1,,<div class = centerbox><div class = fixation>+</div></div>,,test_ITI,1180.6607435612157,,test,1.0,1180.6607435612157,,,,,,,"{'min': 0, 'max': 5, 'mean': 0.5}",,,,
207,,html-keyboard-response,207,198057,0.0-3.1-65.1,,"<div class=""centerbox""><div class=""fixation"">+</div></div>",,test_fixation,500.0,,test,1.0,500.0,,,,,,,,,,,
208,,html-keyboard-response,208,199563,0.0-3.1-66.1,,"<div class = centerbox><div class = stroop-stim style = ""color:#7070FF"">blue</div></div>",,test_trial,1500.0,,test,1.0,1000.0,congruent,blue,blue,",","['.', ',', '/']",0,,,,,
209,,html-keyboard-response,209,199694,0.0-3.1-67.1,,<div class = centerbox><div class = fixation>+</div></div>,,test_ITI,128.44162215530258,,test,1.0,128.44162215530258,,,,,,,"{'min': 0, 'max': 5, 'mean': 0.5}",,,,
210,,html-keyboard-response,210,200201,0.0-3.1-68.1,,"<div class=""centerbox""><div class=""fixation"">+</div></div>",,test_fixation,500.0,,test,1.0,500.0,,,,,,,,,,,
211,,html-keyboard-response,211,201706,0.0-3.1-69.1,,"<div class = centerbox><div class = stroop-stim style = ""color:#7070FF"">red</div></div>",,test_trial,1500.0,,test,1.0,1000.0,incongruent,blue,red,",","['.', ',', '/']",0,,,,,
212,,html-keyboard-response,212,203147,0.0-3.1-70.1,,<div class = centerbox><div class = fixation>+</div></div>,,test_ITI,1434.6734355794886,,test,1.0,1434.6734355794886,,,,,,,"{'min': 0, 'max': 5, 'mean': 0.5}",,,,
213,,html-keyboard-response,213,203651,0.0-3.1-71.1,,"<div class=""centerbox""><div class=""fixation"">+</div></div>",,test_fixation,500.0,,test,1.0,500.0,,,,,,,,,,,
214,,html-keyboard-response,214,205157,0.0-3.1-72.1,,"<div class = centerbox><div class = stroop-stim style = ""color:#7070FF"">green</div></div>",,test_trial,1500.0,,test,1.0,1000.0,incongruent,blue,green,",","['.', ',', '/']",0,,,,,
215,,html-keyboard-response,215,205636,0.0-3.1-73.1,,<div class = centerbox><div class = fixation>+</div></div>,,test_ITI,474.40655343989175,,test,1.0,474.40655343989175,,,,,,,"{'min': 0, 'max': 5, 'mean': 0.5}",,,,
216,,html-keyboard-response,216,206141,0.0-3.1-74.1,,"<div class=""centerbox""><div class=""fixation"">+</div></div>",,test_fixation,500.0,,test,1.0,500.0,,,,,,,,,,,
217,,html-keyboard-response,217,207647,0.0-3.1-75.1,,"<div class = centerbox><div class = stroop-stim style = ""color:#70FF70"">red</div></div>",,test_trial,1500.0,,test,1.0,1000.0,incongruent,green,red,/,"['.', ',', '/']",0,,,,,
218,,html-keyboard-response,218,207718,0.0-3.1-76.1,,<div class = centerbox><div class = fixation>+</div></div>,,test_ITI,65.65103487781847,,test,1.0,65.65103487781847,,,,,,,"{'min': 0, 'max': 5, 'mean': 0.5}",,,,
219,,html-keyboard-response,219,208224,0.0-3.1-77.1,,"<div class=""centerbox""><div class=""fixation"">+</div></div>",,test_fixation,500.0,,test,1.0,500.0,,,,,,,,,,,
220,,html-keyboard-response,220,209730,0.0-3.1-78.1,,"<div class = centerbox><div class = stroop-stim style = ""color:#70FF70"">green</div></div>",,test_trial,1500.0,,test,1.0,1000.0,congruent,green,green,/,"['.', ',', '/']",0,,,,,
221,,html-keyboard-response,221,209838,0.0-3.1-79.1,,<div class = centerbox><div class = fixation>+</div></div>,,test_ITI,104.24995260728726,,test,1.0,104.24995260728726,,,,,,,"{'min': 0, 'max': 5, 'mean': 0.5}",,,,
222,,html-keyboard-response,222,210345,0.0-3.1-80.1,,"<div class=""centerbox""><div class=""fixation"">+</div></div>",,test_fixation,500.0,,test,1.0,500.0,,,,,,,,,,,
223,,html-keyboard-response,223,211852,0.0-3.1-81.1,,"<div class = centerbox><div class = stroop-stim style = ""color:#FF7070"">green</div></div>",,test_trial,1500.0,,test,1.0,1000.0,incongruent,red,green,.,"['.', ',', '/']",0,,,,,
224,,html-keyboard-response,224,211885,0.0-3.1-82.1,,<div class = centerbox><div class = fixation>+</div></div>,,test_ITI,28.91559675666887,,test,1.0,28.91559675666887,,,,,,,"{'min': 0, 'max': 5, 'mean': 0.5}",,,,
225,,html-keyboard-response,225,212393,0.0-3.1-83.1,,"<div class=""centerbox""><div class=""fixation"">+</div></div>",,test_fixation,500.0,,test,1.0,500.0,,,,,,,,,,,
226,,html-keyboard-response,226,213899,0.0-3.1-84.1,,"<div class = centerbox><div class = stroop-stim style = ""color:#7070FF"">red</div></div>",,test_trial,1500.0,,test,1.0,1000.0,incongruent,blue,red,",","['.', ',', '/']",0,,,,,
227,,html-keyboard-response,227,216723,0.0-3.1-85.1,,<div class = centerbox><div class = fixation>+</div></div>,,test_ITI,2817.345897258933,,test,1.0,2817.345897258933,,,,,,,"{'min': 0, 'max': 5, 'mean': 0.5}",,,,
228,,html-keyboard-response,228,217230,0.0-3.1-86.1,,"<div class=""centerbox""><div class=""fixation"">+</div></div>",,test_fixation,500.0,,test,1.0,500.0,,,,,,,,,,,
229,,html-keyboard-response,229,218735,0.0-3.1-87.1,,"<div class = centerbox><div class = stroop-stim style = ""color:#7070FF"">blue</div></div>",,test_trial,1500.0,,test,1.0,1000.0,congruent,blue,blue,",","['.', ',', '/']",0,,,,,
230,,html-keyboard-response,230,219009,0.0-3.1-88.1,,<div class = centerbox><div class = fixation>+</div></div>,,test_ITI,271.9685282287931,,test,1.0,271.9685282287931,,,,,,,"{'min': 0, 'max': 5, 'mean': 0.5}",,,,
231,,html-keyboard-response,231,219516,0.0-3.1-89.1,,"<div class=""centerbox""><div class=""fixation"">+</div></div>",,test_fixation,500.0,,test,1.0,500.0,,,,,,,,,,,
232,,html-keyboard-response,232,221023,0.0-3.1-90.1,,"<div class = centerbox><div class = stroop-stim style = ""color:#7070FF"">green</div></div>",,test_trial,1500.0,,test,1.0,1000.0,incongruent,blue,green,",","['.', ',', '/']",0,,,,,
233,,html-keyboard-response,233,221234,0.0-3.1-91.1,,<div class = centerbox><div class = fixation>+</div></div>,,test_ITI,205.85427543678708,,test,1.0,205.85427543678708,,,,,,,"{'min': 0, 'max': 5, 'mean': 0.5}",,,,
234,,html-keyboard-response,234,221741,0.0-3.1-92.1,,"<div class=""centerbox""><div class=""fixation"">+</div></div>",,test_fixation,500.0,,test,1.0,500.0,,,,,,,,,,,
235,,html-keyboard-response,235,223247,0.0-3.1-93.1,,"<div class = centerbox><div class = stroop-stim style = ""color:#7070FF"">green</div></div>",,test_trial,1500.0,,test,1.0,1000.0,incongruent,blue,green,",","['.', ',', '/']",0,,,,,
236,,html-keyboard-response,236,224102,0.0-3.1-94.1,,<div class = centerbox><div class = fixation>+</div></div>,,test_ITI,848.2254213621993,,test,1.0,848.2254213621993,,,,,,,"{'min': 0, 'max': 5, 'mean': 0.5}",,,,
237,,html-keyboard-response,237,224609,0.0-3.1-95.1,,"<div class=""centerbox""><div class=""fixation"">+</div></div>",,test_fixation,500.0,,test,1.0,500.0,,,,,,,,,,,
238,,html-keyboard-response,238,226116,0.0-3.1-96.1,,"<div class = centerbox><div class = stroop-stim style = ""color:#70FF70"">blue</div></div>",,test_trial,1500.0,,test,1.0,1000.0,incongruent,green,blue,/,"['.', ',', '/']",0,,,,,
239,,html-keyboard-response,239,227448,0.0-3.1-97.1,,<div class = centerbox><div class = fixation>+</div></div>,,test_ITI,1327.3921759843372,,test,1.0,1327.3921759843372,,,,,,,"{'min': 0, 'max': 5, 'mean': 0.5}",,,,
240,,html-keyboard-response,240,227951,0.0-3.1-98.1,,"<div class=""centerbox""><div class=""fixation"">+</div></div>",,test_fixation,500.0,,test,1.0,500.0,,,,,,,,,,,
241,,html-keyboard-response,241,229457,0.0-3.1-99.1,,"<div class = centerbox><div class = stroop-stim style = ""color:#70FF70"">green</div></div>",,test_trial,1500.0,,test,1.0,1000.0,congruent,green,green,/,"['.', ',', '/']",0,,,,,
242,,html-keyboard-response,242,229633,0.0-3.1-100.1,,<div class = centerbox><div class = fixation>+</div></div>,,test_ITI,175.44778099329156,,test,1.0,175.44778099329156,,,,,,,"{'min': 0, 'max': 5, 'mean': 0.5}",,,,
243,,html-keyboard-response,243,230139,0.0-3.1-101.1,,"<div class=""centerbox""><div class=""fixation"">+</div></div>",,test_fixation,500.0,,test,1.0,500.0,,,,,,,,,,,
244,,html-keyboard-response,244,231640,0.0-3.1-102.1,,"<div class = centerbox><div class = stroop-stim style = ""color:#FF7070"">green</div></div>",,test_trial,1500.0,,test,1.0,1000.0,incongruent,red,green,.,"['.', ',', '/']",0,,,,,
245,,html-keyboard-response,245,231653,0.0-3.1-103.1,,<div class = centerbox><div class = fixation>+</div></div>,,test_ITI,11.00124914140134,,test,1.0,11.00124914140134,,,,,,,"{'min': 0, 'max': 5, 'mean': 0.5}",,,,
246,,html-keyboard-response,246,232160,0.0-3.1-104.1,,"<div class=""centerbox""><div class=""fixation"">+</div></div>",,test_fixation,500.0,,test,1.0,500.0,,,,,,,,,,,
247,,html-keyboard-response,247,233662,0.0-3.1-105.1,,"<div class = centerbox><div class = stroop-stim style = ""color:#70FF70"">green</div></div>",,test_trial,1500.0,,test,1.0,1000.0,congruent,green,green,/,"['.', ',', '/']",0,,,,,
248,,html-keyboard-response,248,233875,0.0-3.1-106.1,,<div class = centerbox><div class = fixation>+</div></div>,,test_ITI,206.8562812566248,,test,1.0,206.8562812566248,,,,,,,"{'min': 0, 'max': 5, 'mean': 0.5}",,,,
249,,html-keyboard-response,249,234379,0.0-3.1-107.1,,"<div class=""centerbox""><div class=""fixation"">+</div></div>",,test_fixation,500.0,,test,1.0,500.0,,,,,,,,,,,
250,,html-keyboard-response,250,235885,0.0-3.1-108.1,,"<div class = centerbox><div class = stroop-stim style = ""color:#FF7070"">red</div></div>",,test_trial,1500.0,,test,1.0,1000.0,congruent,red,red,.,"['.', ',', '/']",0,,,,,
251,,html-keyboard-response,251,235986,0.0-3.1-109.1,,<div class = centerbox><div class = fixation>+</div></div>,,test_ITI,97.08545516660142,,test,1.0,97.08545516660142,,,,,,,"{'min': 0, 'max': 5, 'mean': 0.5}",,,,
252,,html-keyboard-response,252,236493,0.0-3.1-110.1,,"<div class=""centerbox""><div class=""fixation"">+</div></div>",,test_fixation,500.0,,test,1.0,500.0,,,,,,,,,,,
253,,html-keyboard-response,253,237999,0.0-3.1-111.1,,"<div class = centerbox><div class = stroop-stim style = ""color:#7070FF"">blue</div></div>",,test_trial,1500.0,,test,1.0,1000.0,congruent,blue,blue,",","['.', ',', '/']",0,,,,,
254,,html-keyboard-response,254,238077,0.0-3.1-112.1,,<div class = centerbox><div class = fixation>+</div></div>,,test_ITI,71.83621267534144,,test,1.0,71.83621267534144,,,,,,,"{'min': 0, 'max': 5, 'mean': 0.5}",,,,
255,,html-keyboard-response,255,238580,0.0-3.1-113.1,,"<div class=""centerbox""><div class=""fixation"">+</div></div>",,test_fixation,500.0,,test,1.0,500.0,,,,,,,,,,,
256,,html-keyboard-response,256,240086,0.0-3.1-114.1,,"<div class = centerbox><div class = stroop-stim style = ""color:#FF7070"">green</div></div>",,test_trial,1500.0,,test,1.0,1000.0,incongruent,red,green,.,"['.', ',', '/']",0,,,,,
257,,html-keyboard-response,257,240712,0.0-3.1-115.1,,<div class = centerbox><div class = fixation>+</div></div>,,test_ITI,623.3747581511714,,test,1.0,623.3747581511714,,,,,,,"{'min': 0, 'max': 5, 'mean': 0.5}",,,,
258,,html-keyboard-response,258,241217,0.0-3.1-116.1,,"<div class=""centerbox""><div class=""fixation"">+</div></div>",,test_fixation,500.0,,test,1.0,500.0,,,,,,,,,,,
259,,html-keyboard-response,259,242723,0.0-3.1-117.1,,"<div class = centerbox><div class = stroop-stim style = ""color:#70FF70"">green</div></div>",,test_trial,1500.0,,test,1.0,1000.0,congruent,green,green,/,"['.', ',', '/']",0,,,,,
260,,html-keyboard-response,260,243529,0.0-3.1-118.1,,<div class = centerbox><div class = fixation>+</div></div>,,test_ITI,799.7600676243268,,test,1.0,799.7600676243268,,,,,,,"{'min': 0, 'max': 5, 'mean': 0.5}",,,,
261,,html-keyboard-response,261,244036,0.0-3.1-119.1,,"<div class=""centerbox""><div class=""fixation"">+</div></div>",,test_fixation,500.0,,test,1.0,500.0,,,,,,,,,,,
262,,html-keyboard-response,262,245543,0.0-3.1-120.1,,"<div class = centerbox><div class = stroop-stim style = ""color:#70FF70"">green</div></div>",,test_trial,1500.0,,test,1.0,1000.0,congruent,green,green,/,"['.', ',', '/']",0,,,,,
263,,html-keyboard-response,263,246193,0.0-3.1-121.1,,<div class = centerbox><div class = fixation>+</div></div>,,test_ITI,648.0418493042198,,test,1.0,648.0418493042198,,,,,,,"{'min': 0, 'max': 5, 'mean': 0.5}",,,,
264,,html-keyboard-response,264,247790,0.0-3.2-0.2,1595.0,"<div class = bigbox><div class = picture_box><p class = block-text>
    <div class = centerbox><p class = block-text>Please take this time to read your feedback! This screen will advance automatically in 1 minute.</p><p class=block-text>You have completed 2 out of 3 blocks of trials.</p>
          <p class=""block-text"">Your accuracy is low. Remember:</p>
          
  <ul class=""list-text"">
    <li><span class=""large"" style=""color:#FF7070"">middle finger</span></li>
    <li><span class=""large"" style=""color:#7070FF"">index finger</span></li>
    <li><span class=""large"" style=""color:#70FF70"">ring finger</span></li>
  </ul>
          <p class=""block-text"">You have not been responding to some trials. Please respond on every trial that requires a response.</p><p class=block-text>Press <i>enter</i> to continue.</p></div>
    </font></p></div></div>",enter,test_feedback,60000.0,,test,2.0,,,,,,,,,,,,
265,,html-keyboard-response,265,249820,0.0-3.2-1.2-0.2,1023.0,,p,test_attention_check,,,test,2.0,,,,,,,True,,<p class='block-text'>Press the P key</p> <div class=block-text>This screen will advance automatically in 1 minute.</div>,80.0,,
266,,html-keyboard-response,266,250324,0.0-3.2-2.2,,"<div class=""centerbox""><div class=""fixation"">+</div></div>",,test_fixation,500.0,,test,2.0,500.0,,,,,,,,,,,
267,,html-keyboard-response,267,251826,0.0-3.2-3.2,683.0,"<div class = centerbox><div class = stroop-stim style = ""color:#7070FF"">green</div></div>",",",test_trial,1500.0,,test,2.0,1000.0,incongruent,blue,green,",","['.', ',', '/']",1,,,,,
268,,html-keyboard-response,268,253182,0.0-3.2-4.2,,<div class = centerbox><div class = fixation>+</div></div>,,test_ITI,1351.1394655134245,,test,2.0,1351.1394655134245,,,,,,,"{'min': 0, 'max': 5, 'mean': 0.5}",,,,
269,,html-keyboard-response,269,253687,0.0-3.2-5.2,,"<div class=""centerbox""><div class=""fixation"">+</div></div>",,test_fixation,500.0,,test,2.0,500.0,,,,,,,,,,,
270,,html-keyboard-response,270,255190,0.0-3.2-6.2,416.0,"<div class = centerbox><div class = stroop-stim style = ""color:#70FF70"">red</div></div>",/,test_trial,1500.0,,test,2.0,1000.0,incongruent,green,red,/,"['.', ',', '/']",1,,,,,
271,,html-keyboard-response,271,256921,0.0-3.2-7.2,,<div class = centerbox><div class = fixation>+</div></div>,,test_ITI,1726.418311788747,,test,2.0,1726.418311788747,,,,,,,"{'min': 0, 'max': 5, 'mean': 0.5}",,,,
272,,html-keyboard-response,272,257428,0.0-3.2-8.2,,"<div class=""centerbox""><div class=""fixation"">+</div></div>",,test_fixation,500.0,,test,2.0,500.0,,,,,,,,,,,
273,,html-keyboard-response,273,258934,0.0-3.2-9.2,,"<div class = centerbox><div class = stroop-stim style = ""color:#FF7070"">red</div></div>",,test_trial,1500.0,,test,2.0,1000.0,congruent,red,red,.,"['.', ',', '/']",0,,,,,
274,,html-keyboard-response,274,258955,0.0-3.2-10.2,,<div class = centerbox><div class = fixation>+</div></div>,,test_ITI,18.132021202037382,,test,2.0,18.132021202037382,,,,,,,"{'min': 0, 'max': 5, 'mean': 0.5}",,,,
275,,html-keyboard-response,275,259459,0.0-3.2-11.2,,"<div class=""centerbox""><div class=""fixation"">+</div></div>",,test_fixation,500.0,,test,2.0,500.0,,,,,,,,,,,
276,,html-keyboard-response,276,260966,0.0-3.2-12.2,,"<div class = centerbox><div class = stroop-stim style = ""color:#FF7070"">red</div></div>",,test_trial,1500.0,,test,2.0,1000.0,congruent,red,red,.,"['.', ',', '/']",0,,,,,
277,,html-keyboard-response,277,262076,0.0-3.2-13.2,,<div class = centerbox><div class = fixation>+</div></div>,,test_ITI,1106.9390434745465,,test,2.0,1106.9390434745465,,,,,,,"{'min': 0, 'max': 5, 'mean': 0.5}",,,,
278,,html-keyboard-response,278,262581,0.0-3.2-14.2,,"<div class=""centerbox""><div class=""fixation"">+</div></div>",,test_fixation,500.0,,test,2.0,500.0,,,,,,,,,,,
279,,html-keyboard-response,279,264085,0.0-3.2-15.2,,"<div class = centerbox><div class = stroop-stim style = ""color:#7070FF"">red</div></div>",,test_trial,1500.0,,test,2.0,1000.0,incongruent,blue,red,",","['.', ',', '/']",0,,,,,
280,,html-keyboard-response,280,265246,0.0-3.2-16.2,,<div class = centerbox><div class = fixation>+</div></div>,,test_ITI,1157.8319384901922,,test,2.0,1157.8319384901922,,,,,,,"{'min': 0, 'max': 5, 'mean': 0.5}",,,,
281,,html-keyboard-response,281,265754,0.0-3.2-17.2,,"<div class=""centerbox""><div class=""fixation"">+</div></div>",,test_fixation,500.0,,test,2.0,500.0,,,,,,,,,,,
282,,html-keyboard-response,282,267256,0.0-3.2-18.2,,"<div class = centerbox><div class = stroop-stim style = ""color:#7070FF"">blue</div></div>",,test_trial,1500.0,,test,2.0,1000.0,congruent,blue,blue,",","['.', ',', '/']",0,,,,,
283,,html-keyboard-response,283,267454,0.0-3.2-19.2,,<div class = centerbox><div class = fixation>+</div></div>,,test_ITI,194.3051858326289,,test,2.0,194.3051858326289,,,,,,,"{'min': 0, 'max': 5, 'mean': 0.5}",,,,
284,,html-keyboard-response,284,267960,0.0-3.2-20.2,,"<div class=""centerbox""><div class=""fixation"">+</div></div>",,test_fixation,500.0,,test,2.0,500.0,,,,,,,,,,,
285,,html-keyboard-response,285,269466,0.0-3.2-21.2,,"<div class = centerbox><div class = stroop-stim style = ""color:#7070FF"">blue</div></div>",,test_trial,1500.0,,test,2.0,1000.0,congruent,blue,blue,",","['.', ',', '/']",0,,,,,
286,,html-keyboard-response,286,270019,0.0-3.2-22.2,,<div class = centerbox><div class = fixation>+</div></div>,,test_ITI,547.3333936750463,,test,2.0,547.3333936750463,,,,,,,"{'min': 0, 'max': 5, 'mean': 0.5}",,,,
287,,html-keyboard-response,287,270526,0.0-3.2-23.2,,"<div class=""centerbox""><div class=""fixation"">+</div></div>",,test_fixation,500.0,,test,2.0,500.0,,,,,,,,,,,
288,,html-keyboard-response,288,272028,0.0-3.2-24.2,,"<div class = centerbox><div class = stroop-stim style = ""color:#7070FF"">blue</div></div>",,test_trial,1500.0,,test,2.0,1000.0,congruent,blue,blue,",","['.', ',', '/']",0,,,,,
289,,html-keyboard-response,289,272197,0.0-3.2-25.2,,<div class = centerbox><div class = fixation>+</div></div>,,test_ITI,166.82765335792348,,test,2.0,166.82765335792348,,,,,,,"{'min': 0, 'max': 5, 'mean': 0.5}",,,,
290,,html-keyboard-response,290,272702,0.0-3.2-26.2,,"<div class=""centerbox""><div class=""fixation"">+</div></div>",,test_fixation,500.0,,test,2.0,500.0,,,,,,,,,,,
291,,html-keyboard-response,291,274208,0.0-3.2-27.2,,"<div class = centerbox><div class = stroop-stim style = ""color:#FF7070"">green</div></div>",,test_trial,1500.0,,test,2.0,1000.0,incongruent,red,green,.,"['.', ',', '/']",0,,,,,
292,,html-keyboard-response,292,274428,0.0-3.2-28.2,,<div class = centerbox><div class = fixation>+</div></div>,,test_ITI,214.88900802294785,,test,2.0,214.88900802294785,,,,,,,"{'min': 0, 'max': 5, 'mean': 0.5}",,,,
293,,html-keyboard-response,293,274931,0.0-3.2-29.2,,"<div class=""centerbox""><div class=""fixation"">+</div></div>",,test_fixation,500.0,,test,2.0,500.0,,,,,,,,,,,
294,,html-keyboard-response,294,276434,0.0-3.2-30.2,,"<div class = centerbox><div class = stroop-stim style = ""color:#FF7070"">green</div></div>",,test_trial,1500.0,,test,2.0,1000.0,incongruent,red,green,.,"['.', ',', '/']",0,,,,,
295,,html-keyboard-response,295,276780,0.0-3.2-31.2,,<div class = centerbox><div class = fixation>+</div></div>,,test_ITI,340.7273600446436,,test,2.0,340.7273600446436,,,,,,,"{'min': 0, 'max': 5, 'mean': 0.5}",,,,
296,,html-keyboard-response,296,277287,0.0-3.2-32.2,,"<div class=""centerbox""><div class=""fixation"">+</div></div>",,test_fixation,500.0,,test,2.0,500.0,,,,,,,,,,,
297,,html-keyboard-response,297,278793,0.0-3.2-33.2,,"<div class = centerbox><div class = stroop-stim style = ""color:#FF7070"">green</div></div>",,test_trial,1500.0,,test,2.0,1000.0,incongruent,red,green,.,"['.', ',', '/']",0,,,,,
298,,html-keyboard-response,298,278997,0.0-3.2-34.2,,<div class = centerbox><div class = fixation>+</div></div>,,test_ITI,202.79968350494093,,test,2.0,202.79968350494093,,,,,,,"{'min': 0, 'max': 5, 'mean': 0.5}",,,,
299,,html-keyboard-response,299,279504,0.0-3.2-35.2,,"<div class=""centerbox""><div class=""fixation"">+</div></div>",,test_fixation,500.0,,test,2.0,500.0,,,,,,,,,,,
300,,html-keyboard-response,300,281011,0.0-3.2-36.2,,"<div class = centerbox><div class = stroop-stim style = ""color:#7070FF"">blue</div></div>",,test_trial,1500.0,,test,2.0,1000.0,congruent,blue,blue,",","['.', ',', '/']",0,,,,,
301,,html-keyboard-response,301,281755,0.0-3.2-37.2,,<div class = centerbox><div class = fixation>+</div></div>,,test_ITI,737.3937110155528,,test,2.0,737.3937110155528,,,,,,,"{'min': 0, 'max': 5, 'mean': 0.5}",,,,
302,,html-keyboard-response,302,282262,0.0-3.2-38.2,,"<div class=""centerbox""><div class=""fixation"">+</div></div>",,test_fixation,500.0,,test,2.0,500.0,,,,,,,,,,,
303,,html-keyboard-response,303,283763,0.0-3.2-39.2,,"<div class = centerbox><div class = stroop-stim style = ""color:#FF7070"">blue</div></div>",,test_trial,1500.0,,test,2.0,1000.0,incongruent,red,blue,.,"['.', ',', '/']",0,,,,,
304,,html-keyboard-response,304,284240,0.0-3.2-40.2,,<div class = centerbox><div class = fixation>+</div></div>,,test_ITI,470.580140616698,,test,2.0,470.580140616698,,,,,,,"{'min': 0, 'max': 5, 'mean': 0.5}",,,,
305,,html-keyboard-response,305,284745,0.0-3.2-41.2,,"<div class=""centerbox""><div class=""fixation"">+</div></div>",,test_fixation,500.0,,test,2.0,500.0,,,,,,,,,,,
306,,html-keyboard-response,306,286251,0.0-3.2-42.2,,"<div class = centerbox><div class = stroop-stim style = ""color:#FF7070"">red</div></div>",,test_trial,1500.0,,test,2.0,1000.0,congruent,red,red,.,"['.', ',', '/']",0,,,,,
307,,html-keyboard-response,307,286918,0.0-3.2-43.2,,<div class = centerbox><div class = fixation>+</div></div>,,test_ITI,660.8164607957398,,test,2.0,660.8164607957398,,,,,,,"{'min': 0, 'max': 5, 'mean': 0.5}",,,,
308,,html-keyboard-response,308,287424,0.0-3.2-44.2,,"<div class=""centerbox""><div class=""fixation"">+</div></div>",,test_fixation,500.0,,test,2.0,500.0,,,,,,,,,,,
309,,html-keyboard-response,309,288929,0.0-3.2-45.2,,"<div class = centerbox><div class = stroop-stim style = ""color:#70FF70"">red</div></div>",,test_trial,1500.0,,test,2.0,1000.0,incongruent,green,red,/,"['.', ',', '/']",0,,,,,
310,,html-keyboard-response,310,289182,0.0-3.2-46.2,,<div class = centerbox><div class = fixation>+</div></div>,,test_ITI,249.01081660105064,,test,2.0,249.01081660105064,,,,,,,"{'min': 0, 'max': 5, 'mean': 0.5}",,,,
311,,html-keyboard-response,311,289688,0.0-3.2-47.2,,"<div class=""centerbox""><div class=""fixation"">+</div></div>",,test_fixation,500.0,,test,2.0,500.0,,,,,,,,,,,
312,,html-keyboard-response,312,291195,0.0-3.2-48.2,,"<div class = centerbox><div class = stroop-stim style = ""color:#7070FF"">red</div></div>",,test_trial,1500.0,,test,2.0,1000.0,incongruent,blue,red,",","['.', ',', '/']",0,,,,,
313,,html-keyboard-response,313,291316,0.0-3.2-49.2,,<div class = centerbox><div class = fixation>+</div></div>,,test_ITI,115.34399171776306,,test,2.0,115.34399171776306,,,,,,,"{'min': 0, 'max': 5, 'mean': 0.5}",,,,
314,,html-keyboard-response,314,291823,0.0-3.2-50.2,,"<div class=""centerbox""><div class=""fixation"">+</div></div>",,test_fixation,500.0,,test,2.0,500.0,,,,,,,,,,,
315,,html-keyboard-response,315,293329,0.0-3.2-51.2,,"<div class = centerbox><div class = stroop-stim style = ""color:#FF7070"">green</div></div>",,test_trial,1500.0,,test,2.0,1000.0,incongruent,red,green,.,"['.', ',', '/']",0,,,,,
316,,html-keyboard-response,316,293452,0.0-3.2-52.2,,<div class = centerbox><div class = fixation>+</div></div>,,test_ITI,121.60289173992089,,test,2.0,121.60289173992089,,,,,,,"{'min': 0, 'max': 5, 'mean': 0.5}",,,,
317,,html-keyboard-response,317,293958,0.0-3.2-53.2,,"<div class=""centerbox""><div class=""fixation"">+</div></div>",,test_fixation,500.0,,test,2.0,500.0,,,,,,,,,,,
318,,html-keyboard-response,318,295463,0.0-3.2-54.2,,"<div class = centerbox><div class = stroop-stim style = ""color:#7070FF"">blue</div></div>",,test_trial,1500.0,,test,2.0,1000.0,congruent,blue,blue,",","['.', ',', '/']",0,,,,,
319,,html-keyboard-response,319,295564,0.0-3.2-55.2,,<div class = centerbox><div class = fixation>+</div></div>,,test_ITI,95.62596084556989,,test,2.0,95.62596084556989,,,,,,,"{'min': 0, 'max': 5, 'mean': 0.5}",,,,
320,,html-keyboard-response,320,296067,0.0-3.2-56.2,,"<div class=""centerbox""><div class=""fixation"">+</div></div>",,test_fixation,500.0,,test,2.0,500.0,,,,,,,,,,,
321,,html-keyboard-response,321,297571,0.0-3.2-57.2,,"<div class = centerbox><div class = stroop-stim style = ""color:#FF7070"">blue</div></div>",,test_trial,1500.0,,test,2.0,1000.0,incongruent,red,blue,.,"['.', ',', '/']",0,,,,,
322,,html-keyboard-response,322,297993,0.0-3.2-58.2,,<div class = centerbox><div class = fixation>+</div></div>,,test_ITI,415.00411127956886,,test,2.0,415.00411127956886,,,,,,,"{'min': 0, 'max': 5, 'mean': 0.5}",,,,
323,,html-keyboard-response,323,298500,0.0-3.2-59.2,,"<div class=""centerbox""><div class=""fixation"">+</div></div>",,test_fixation,500.0,,test,2.0,500.0,,,,,,,,,,,
324,,html-keyboard-response,324,300004,0.0-3.2-60.2,,"<div class = centerbox><div class = stroop-stim style = ""color:#FF7070"">red</div></div>",,test_trial,1500.0,,test,2.0,1000.0,congruent,red,red,.,"['.', ',', '/']",0,,,,,
325,,html-keyboard-response,325,300022,0.0-3.2-61.2,,<div class = centerbox><div class = fixation>+</div></div>,,test_ITI,16.562002939637857,,test,2.0,16.562002939637857,,,,,,,"{'min': 0, 'max': 5, 'mean': 0.5}",,,,
326,,html-keyboard-response,326,300525,0.0-3.2-62.2,,"<div class=""centerbox""><div class=""fixation"">+</div></div>",,test_fixation,500.0,,test,2.0,500.0,,,,,,,,,,,
327,,html-keyboard-response,327,302029,0.0-3.2-63.2,,"<div class = centerbox><div class = stroop-stim style = ""color:#7070FF"">blue</div></div>",,test_trial,1500.0,,test,2.0,1000.0,congruent,blue,blue,",","['.', ',', '/']",0,,,,,
328,,html-keyboard-response,328,302229,0.0-3.2-64.2,,<div class = centerbox><div class = fixation>+</div></div>,,test_ITI,194.82259756124185,,test,2.0,194.82259756124185,,,,,,,"{'min': 0, 'max': 5, 'mean': 0.5}",,,,
329,,html-keyboard-response,329,302736,0.0-3.2-65.2,,"<div class=""centerbox""><div class=""fixation"">+</div></div>",,test_fixation,500.0,,test,2.0,500.0,,,,,,,,,,,
330,,html-keyboard-response,330,304242,0.0-3.2-66.2,,"<div class = centerbox><div class = stroop-stim style = ""color:#FF7070"">red</div></div>",,test_trial,1500.0,,test,2.0,1000.0,congruent,red,red,.,"['.', ',', '/']",0,,,,,
331,,html-keyboard-response,331,304510,0.0-3.2-67.2,,<div class = centerbox><div class = fixation>+</div></div>,,test_ITI,265.38906270544345,,test,2.0,265.38906270544345,,,,,,,"{'min': 0, 'max': 5, 'mean': 0.5}",,,,
332,,html-keyboard-response,332,305017,0.0-3.2-68.2,,"<div class=""centerbox""><div class=""fixation"">+</div></div>",,test_fixation,500.0,,test,2.0,500.0,,,,,,,,,,,
333,,html-keyboard-response,333,306521,0.0-3.2-69.2,,"<div class = centerbox><div class = stroop-stim style = ""color:#7070FF"">blue</div></div>",,test_trial,1500.0,,test,2.0,1000.0,congruent,blue,blue,",","['.', ',', '/']",0,,,,,
334,,html-keyboard-response,334,307731,0.0-3.2-70.2,,<div class = centerbox><div class = fixation>+</div></div>,,test_ITI,1208.996497920283,,test,2.0,1208.996497920283,,,,,,,"{'min': 0, 'max': 5, 'mean': 0.5}",,,,
335,,html-keyboard-response,335,308238,0.0-3.2-71.2,,"<div class=""centerbox""><div class=""fixation"">+</div></div>",,test_fixation,500.0,,test,2.0,500.0,,,,,,,,,,,
336,,html-keyboard-response,336,309744,0.0-3.2-72.2,,"<div class = centerbox><div class = stroop-stim style = ""color:#7070FF"">green</div></div>",,test_trial,1500.0,,test,2.0,1000.0,incongruent,blue,green,",","['.', ',', '/']",0,,,,,
337,,html-keyboard-response,337,310612,0.0-3.2-73.2,,<div class = centerbox><div class = fixation>+</div></div>,,test_ITI,862.7108696235993,,test,2.0,862.7108696235993,,,,,,,"{'min': 0, 'max': 5, 'mean': 0.5}",,,,
338,,html-keyboard-response,338,311117,0.0-3.2-74.2,,"<div class=""centerbox""><div class=""fixation"">+</div></div>",,test_fixation,500.0,,test,2.0,500.0,,,,,,,,,,,
339,,html-keyboard-response,339,312622,0.0-3.2-75.2,,"<div class = centerbox><div class = stroop-stim style = ""color:#FF7070"">blue</div></div>",,test_trial,1500.0,,test,2.0,1000.0,incongruent,red,blue,.,"['.', ',', '/']",0,,,,,
340,,html-keyboard-response,340,312678,0.0-3.2-76.2,,<div class = centerbox><div class = fixation>+</div></div>,,test_ITI,50.86603138705088,,test,2.0,50.86603138705088,,,,,,,"{'min': 0, 'max': 5, 'mean': 0.5}",,,,
341,,html-keyboard-response,341,313181,0.0-3.2-77.2,,"<div class=""centerbox""><div class=""fixation"">+</div></div>",,test_fixation,500.0,,test,2.0,500.0,,,,,,,,,,,
342,,html-keyboard-response,342,314687,0.0-3.2-78.2,,"<div class = centerbox><div class = stroop-stim style = ""color:#70FF70"">green</div></div>",,test_trial,1500.0,,test,2.0,1000.0,congruent,green,green,/,"['.', ',', '/']",0,,,,,
343,,html-keyboard-response,343,314745,0.0-3.2-79.2,,<div class = centerbox><div class = fixation>+</div></div>,,test_ITI,54.64045294522843,,test,2.0,54.64045294522843,,,,,,,"{'min': 0, 'max': 5, 'mean': 0.5}",,,,
344,,html-keyboard-response,344,315252,0.0-3.2-80.2,,"<div class=""centerbox""><div class=""fixation"">+</div></div>",,test_fixation,500.0,,test,2.0,500.0,,,,,,,,,,,
345,,html-keyboard-response,345,316756,0.0-3.2-81.2,,"<div class = centerbox><div class = stroop-stim style = ""color:#70FF70"">green</div></div>",,test_trial,1500.0,,test,2.0,1000.0,congruent,green,green,/,"['.', ',', '/']",0,,,,,
346,,html-keyboard-response,346,318222,0.0-3.2-82.2,,<div class = centerbox><div class = fixation>+</div></div>,,test_ITI,1460.8289944496714,,test,2.0,1460.8289944496714,,,,,,,"{'min': 0, 'max': 5, 'mean': 0.5}",,,,
347,,html-keyboard-response,347,318729,0.0-3.2-83.2,,"<div class=""centerbox""><div class=""fixation"">+</div></div>",,test_fixation,500.0,,test,2.0,500.0,,,,,,,,,,,
348,,html-keyboard-response,348,320232,0.0-3.2-84.2,,"<div class = centerbox><div class = stroop-stim style = ""color:#FF7070"">red</div></div>",,test_trial,1500.0,,test,2.0,1000.0,congruent,red,red,.,"['.', ',', '/']",0,,,,,
349,,html-keyboard-response,349,320516,0.0-3.2-85.2,,<div class = centerbox><div class = fixation>+</div></div>,,test_ITI,281.81922009512215,,test,2.0,281.81922009512215,,,,,,,"{'min': 0, 'max': 5, 'mean': 0.5}",,,,
350,,html-keyboard-response,350,321022,0.0-3.2-86.2,,"<div class=""centerbox""><div class=""fixation"">+</div></div>",,test_fixation,500.0,,test,2.0,500.0,,,,,,,,,,,
351,,html-keyboard-response,351,322526,0.0-3.2-87.2,,"<div class = centerbox><div class = stroop-stim style = ""color:#70FF70"">red</div></div>",,test_trial,1500.0,,test,2.0,1000.0,incongruent,green,red,/,"['.', ',', '/']",0,,,,,
352,,html-keyboard-response,352,322760,0.0-3.2-88.2,,<div class = centerbox><div class = fixation>+</div></div>,,test_ITI,229.1864752694869,,test,2.0,229.1864752694869,,,,,,,"{'min': 0, 'max': 5, 'mean': 0.5}",,,,
353,,html-keyboard-response,353,323263,0.0-3.2-89.2,,"<div class=""centerbox""><div class=""fixation"">+</div></div>",,test_fixation,500.0,,test,2.0,500.0,,,,,,,,,,,
354,,html-keyboard-response,354,324765,0.0-3.2-90.2,,"<div class = centerbox><div class = stroop-stim style = ""color:#70FF70"">blue</div></div>",,test_trial,1500.0,,test,2.0,1000.0,incongruent,green,blue,/,"['.', ',', '/']",0,,,,,
355,,html-keyboard-response,355,325145,0.0-3.2-91.2,,<div class = centerbox><div class = fixation>+</div></div>,,test_ITI,379.7112854717091,,test,2.0,379.7112854717091,,,,,,,"{'min': 0, 'max': 5, 'mean': 0.5}",,,,
356,,html-keyboard-response,356,325651,0.0-3.2-92.2,,"<div class=""centerbox""><div class=""fixation"">+</div></div>",,test_fixation,500.0,,test,2.0,500.0,,,,,,,,,,,
357,,html-keyboard-response,357,327158,0.0-3.2-93.2,,"<div class = centerbox><div class = stroop-stim style = ""color:#7070FF"">red</div></div>",,test_trial,1500.0,,test,2.0,1000.0,incongruent,blue,red,",","['.', ',', '/']",0,,,,,
358,,html-keyboard-response,358,329123,0.0-3.2-94.2,,<div class = centerbox><div class = fixation>+</div></div>,,test_ITI,1963.8793091725643,,test,2.0,1963.8793091725643,,,,,,,"{'min': 0, 'max': 5, 'mean': 0.5}",,,,
359,,html-keyboard-response,359,329626,0.0-3.2-95.2,,"<div class=""centerbox""><div class=""fixation"">+</div></div>",,test_fixation,500.0,,test,2.0,500.0,,,,,,,,,,,
360,,html-keyboard-response,360,331133,0.0-3.2-96.2,,"<div class = centerbox><div class = stroop-stim style = ""color:#7070FF"">red</div></div>",,test_trial,1500.0,,test,2.0,1000.0,incongruent,blue,red,",","['.', ',', '/']",0,,,,,
361,,html-keyboard-response,361,331580,0.0-3.2-97.2,,<div class = centerbox><div class = fixation>+</div></div>,,test_ITI,446.89512134608646,,test,2.0,446.89512134608646,,,,,,,"{'min': 0, 'max': 5, 'mean': 0.5}",,,,
362,,html-keyboard-response,362,332084,0.0-3.2-98.2,,"<div class=""centerbox""><div class=""fixation"">+</div></div>",,test_fixation,500.0,,test,2.0,500.0,,,,,,,,,,,
363,,html-keyboard-response,363,333590,0.0-3.2-99.2,,"<div class = centerbox><div class = stroop-stim style = ""color:#FF7070"">green</div></div>",,test_trial,1500.0,,test,2.0,1000.0,incongruent,red,green,.,"['.', ',', '/']",0,,,,,
364,,html-keyboard-response,364,334996,0.0-3.2-100.2,,<div class = centerbox><div class = fixation>+</div></div>,,test_ITI,1405.4870288298216,,test,2.0,1405.4870288298216,,,,,,,"{'min': 0, 'max': 5, 'mean': 0.5}",,,,
365,,html-keyboard-response,365,335499,0.0-3.2-101.2,,"<div class=""centerbox""><div class=""fixation"">+</div></div>",,test_fixation,500.0,,test,2.0,500.0,,,,,,,,,,,
366,,html-keyboard-response,366,337005,0.0-3.2-102.2,,"<div class = centerbox><div class = stroop-stim style = ""color:#FF7070"">red</div></div>",,test_trial,1500.0,,test,2.0,1000.0,congruent,red,red,.,"['.', ',', '/']",0,,,,,
367,,html-keyboard-response,367,337196,0.0-3.2-103.2,,<div class = centerbox><div class = fixation>+</div></div>,,test_ITI,185.02862307085044,,test,2.0,185.02862307085044,,,,,,,"{'min': 0, 'max': 5, 'mean': 0.5}",,,,
368,,html-keyboard-response,368,337703,0.0-3.2-104.2,,"<div class=""centerbox""><div class=""fixation"">+</div></div>",,test_fixation,500.0,,test,2.0,500.0,,,,,,,,,,,
369,,html-keyboard-response,369,339206,0.0-3.2-105.2,,"<div class = centerbox><div class = stroop-stim style = ""color:#FF7070"">red</div></div>",,test_trial,1500.0,,test,2.0,1000.0,congruent,red,red,.,"['.', ',', '/']",0,,,,,
370,,html-keyboard-response,370,340176,0.0-3.2-106.2,,<div class = centerbox><div class = fixation>+</div></div>,,test_ITI,968.2479558467895,,test,2.0,968.2479558467895,,,,,,,"{'min': 0, 'max': 5, 'mean': 0.5}",,,,
371,,html-keyboard-response,371,341572,0.0-3.2-107.2,,"<div class=""centerbox""><div class=""fixation"">+</div></div>",,test_fixation,500.0,,test,2.0,500.0,,,,,,,,,,,
372,,html-keyboard-response,372,343570,0.0-3.2-108.2,,"<div class = centerbox><div class = stroop-stim style = ""color:#70FF70"">red</div></div>",,test_trial,1500.0,,test,2.0,1000.0,incongruent,green,red,/,"['.', ',', '/']",0,,,,,
373,,html-keyboard-response,373,344571,0.0-3.2-109.2,,<div class = centerbox><div class = fixation>+</div></div>,,test_ITI,245.831929233267,,test,2.0,245.831929233267,,,,,,,"{'min': 0, 'max': 5, 'mean': 0.5}",,,,
374,,html-keyboard-response,374,345573,0.0-3.2-110.2,,"<div class=""centerbox""><div class=""fixation"">+</div></div>",,test_fixation,500.0,,test,2.0,500.0,,,,,,,,,,,
375,,html-keyboard-response,375,347570,0.0-3.2-111.2,,"<div class = centerbox><div class = stroop-stim style = ""color:#70FF70"">blue</div></div>",,test_trial,1500.0,,test,2.0,1000.0,incongruent,green,blue,/,"['.', ',', '/']",0,,,,,
376,,html-keyboard-response,376,348573,0.0-3.2-112.2,,<div class = centerbox><div class = fixation>+</div></div>,,test_ITI,157.4695937623097,,test,2.0,157.4695937623097,,,,,,,"{'min': 0, 'max': 5, 'mean': 0.5}",,,,
377,,html-keyboard-response,377,349569,0.0-3.2-113.2,,"<div class=""centerbox""><div class=""fixation"">+</div></div>",,test_fixation,500.0,,test,2.0,500.0,,,,,,,,,,,
378,,html-keyboard-response,378,351573,0.0-3.2-114.2,,"<div class = centerbox><div class = stroop-stim style = ""color:#70FF70"">green</div></div>",,test_trial,1500.0,,test,2.0,1000.0,congruent,green,green,/,"['.', ',', '/']",0,,,,,
379,,html-keyboard-response,379,352572,0.0-3.2-115.2,,<div class = centerbox><div class = fixation>+</div></div>,,test_ITI,371.7845511619725,,test,2.0,371.7845511619725,,,,,,,"{'min': 0, 'max': 5, 'mean': 0.5}",,,,
380,,html-keyboard-response,380,353572,0.0-3.2-116.2,,"<div class=""centerbox""><div class=""fixation"">+</div></div>",,test_fixation,500.0,,test,2.0,500.0,,,,,,,,,,,
381,,html-keyboard-response,381,355568,0.0-3.2-117.2,,"<div class = centerbox><div class = stroop-stim style = ""color:#70FF70"">green</div></div>",,test_trial,1500.0,,test,2.0,1000.0,congruent,green,green,/,"['.', ',', '/']",0,,,,,
382,,html-keyboard-response,382,356568,0.0-3.2-118.2,,<div class = centerbox><div class = fixation>+</div></div>,,test_ITI,649.1342004597296,,test,2.0,649.1342004597296,,,,,,,"{'min': 0, 'max': 5, 'mean': 0.5}",,,,
383,,html-keyboard-response,383,357573,0.0-3.2-119.2,,"<div class=""centerbox""><div class=""fixation"">+</div></div>",,test_fixation,500.0,,test,2.0,500.0,,,,,,,,,,,
384,,html-keyboard-response,384,359572,0.0-3.2-120.2,,"<div class = centerbox><div class = stroop-stim style = ""color:#70FF70"">blue</div></div>",,test_trial,1500.0,,test,2.0,1000.0,incongruent,green,blue,/,"['.', ',', '/']",0,,,,,
385,,html-keyboard-response,385,360572,0.0-3.2-121.2,,<div class = centerbox><div class = fixation>+</div></div>,,test_ITI,198.5311202727577,,test,2.0,198.5311202727577,,,,,,,"{'min': 0, 'max': 5, 'mean': 0.5}",,,,
386,,html-keyboard-response,386,374456,0.0-4.0,13883.0,"
  <div class=""centerbox"">
    <p class=""center-block-text"">Thanks for completing this task!</p>
    <p class=""center-block-text"">Press <i>enter</i> to continue.</p>
  </div>
",enter,end,180000.0,,,,,,,,,,,,,,stroop_rdoc,0.0
387,True,fullscreen,387,375461,0.0-5.0,,,,,,,,,,,,,,,,,,,,
