,success,trial_type,trial_index,time_elapsed,internal_node_id,rt,stimulus,response,trial_id,trial_duration,view_history,exp_stage,block_num,stimulus_duration,choices,target_present,num_stimuli,condition,correct_response,correct_trial,ITIParams,current_question,current_key_answer,exp_id,attention_check_percent
0,True,fullscreen,0,1694,0.0-0.0,,,,,,,,,,,,,,,,,,,,
1,,html-keyboard-response,1,1918,0.0-1.0-0.0,221.0,"<div class = centerbox><p class = center-block-text>
    
  <p class=""center-block-text"">
    Welcome! This experiment will take around 12 minutes.
  </p>
  <p class=""center-block-text"">
    To avoid technical issues, please keep the experiment tab (on Chrome or Firefox) active and in fullscreen mode for the whole duration of each task.
  </p>
  <p class=""center-block-text""> Press <i>enter</i> to begin.</p>

    </p></div>",enter,instruction_feedback,180000.0,,,,,,,,,,,,,,,
2,,instructions,2,4479,0.0-1.0-1.0,2561.0,,,instructions,,"[{'page_index': 0, 'viewing_time': 2252}, {'page_index': 1, 'viewing_time': 307}]",,,,,,,,,,,,,,
3,,html-keyboard-response,3,5484,0.0-2.0-0.0,1003.0,"<div class = bigbox><div class = picture_box><p class = block-text>
    <div class = centerbox><p class = center-block-text>Press <i>enter</i> to begin practice.</p></div>
    </font></p></div></div>",enter,practice_feedback,60000.0,,practice,0.0,,,,,,,,,,,,
4,,html-keyboard-response,4,6996,0.0-2.0-1.0,,"<div class=""centerbox""><div class=""fixation"">+</div></div>",,practice_fixation,500.0,,practice,0.0,500.0,,,,,,,,,,,
5,,html-keyboard-response,5,9001,0.0-2.0-2.0,672.0,"<div class=""container"" style=""position: absolute; left: 50%; top: 50%; transform: translate(-50%, -50%); width: 579.5999999999999px; height: 528.5px;""><div id=""black-distractor-element""  class=""box"" style=""position: absolute; left: 83.91999999999999px; top: 6.928571428571429px; width: 40px; height: 80px; background-color: black;""></div><div id=""white-distractor-element""  class=""box"" style=""position: absolute; left: 207.83999999999997px; top: 6.928571428571429px; width: 40px; height: 80px; background-color: white; transform: rotate(90deg); transform-origin: center;""></div><div id=""white-distractor-element""  class=""box"" style=""position: absolute; left: 331.76px; top: 6.928571428571429px; width: 40px; height: 80px; background-color: white; transform: rotate(90deg); transform-origin: center;""></div><div id=""white-distractor-element""  class=""box"" style=""position: absolute; left: 455.67999999999995px; top: 6.928571428571429px; width: 40px; height: 80px; background-color: white; transform: rotate(90deg); transform-origin: center;""></div><div id=""black-distractor-element""  class=""box"" style=""position: absolute; left: 83.91999999999999px; top: 93.85714285714286px; width: 40px; height: 80px; background-color: black;""></div><div id=""white-distractor-element""  class=""box"" style=""position: absolute; left: 207.83999999999997px; top: 93.85714285714286px; width: 40px; height: 80px; background-color: white; transform: rotate(90deg); transform-origin: center;""></div><div id=""black-distractor-element""  class=""box"" style=""position: absolute; left: 331.76px; top: 93.85714285714286px; width: 40px; height: 80px; background-color: black;""></div><div id=""black-distractor-element""  class=""box"" style=""position: absolute; left: 455.67999999999995px; top: 93.85714285714286px; width: 40px; height: 80px; background-color: black;""></div><div id=""white-distractor-element""  class=""box"" style=""position: absolute; left: 83.91999999999999px; top: 180.78571428571428px; width: 40px; height: 80px; background-color: white; transform: rotate(90deg); transform-origin: center;""></div><div id=""black-distractor-element""  class=""box"" style=""position: absolute; left: 207.83999999999997px; top: 180.78571428571428px; width: 40px; height: 80px; background-color: black;""></div><div id=""white-distractor-element""  class=""box"" style=""position: absolute; left: 331.76px; top: 180.78571428571428px; width: 40px; height: 80px; background-color: white; transform: rotate(90deg); transform-origin: center;""></div><div id=""black-distractor-element""  class=""box"" style=""position: absolute; left: 455.67999999999995px; top: 180.78571428571428px; width: 40px; height: 80px; background-color: black;""></div><div id=""black-distractor-element""  class=""box"" style=""position: absolute; left: 83.91999999999999px; top: 267.7142857142857px; width: 40px; height: 80px; background-color: black;""></div><div id=""black-distractor-element""  class=""box"" style=""position: absolute; left: 207.83999999999997px; top: 267.7142857142857px; width: 40px; height: 80px; background-color: black;""></div><div id=""black-distractor-element""  class=""box"" style=""position: absolute; left: 331.76px; top: 267.7142857142857px; width: 40px; height: 80px; background-color: black;""></div><div id=""black-distractor-element""  class=""box"" style=""position: absolute; left: 455.67999999999995px; top: 267.7142857142857px; width: 40px; height: 80px; background-color: black;""></div><div id=""black-distractor-element""  class=""box"" style=""position: absolute; left: 83.91999999999999px; top: 354.64285714285717px; width: 40px; height: 80px; background-color: black;""></div><div id=""black-distractor-element""  class=""box"" style=""position: absolute; left: 207.83999999999997px; top: 354.64285714285717px; width: 40px; height: 80px; background-color: black;""></div><div id=""white-distractor-element""  class=""box"" style=""position: absolute; left: 331.76px; top: 354.64285714285717px; width: 40px; height: 80px; background-color: white; transform: rotate(90deg); transform-origin: center;""></div><div id=""black-distractor-element""  class=""box"" style=""position: absolute; left: 455.67999999999995px; top: 354.64285714285717px; width: 40px; height: 80px; background-color: black;""></div><div id=""black-distractor-element""  class=""box"" style=""position: absolute; left: 83.91999999999999px; top: 441.57142857142856px; width: 40px; height: 80px; background-color: black;""></div><div id=""black-distractor-element""  class=""box"" style=""position: absolute; left: 207.83999999999997px; top: 441.57142857142856px; width: 40px; height: 80px; background-color: black;""></div><div id=""target"" class=""box"" style=""position: absolute; left: 331.76px; top: 441.57142857142856px; width: 40px; height: 80px; background-color: white;""></div><div id=""black-distractor-element""  class=""box"" style=""position: absolute; left: 455.67999999999995px; top: 441.57142857142856px; width: 40px; height: 80px; background-color: black;""></div></div>",.,practice_trial,2000.0,,practice,0.0,1500.0,"['.', ',']",1.0,24.0,conjunction,.,1,,,,,
6,,html-keyboard-response,6,9508,0.0-2.0-3.0,,<div class = centerbox><p class = center-block-text>Correct!</div></div>,,practice_feedback,500.0,,practice,0.0,500.0,,,,,,,,,,,
7,,html-keyboard-response,7,10084,0.0-2.0-4.0,,<div class = centerbox><div class = fixation>+</div></div>,,practice_ITI,569.1180026287394,,practice,0.0,569.1180026287394,,,,,,,"{'min': 0, 'max': 5, 'mean': 0.5}",,,,
8,,html-keyboard-response,8,10590,0.0-2.0-5.0,,"<div class=""centerbox""><div class=""fixation"">+</div></div>",,practice_fixation,500.0,,practice,0.0,500.0,,,,,,,,,,,
9,,html-keyboard-response,9,12594,0.0-2.0-6.0,566.0,"<div class=""container"" style=""position: absolute; left: 50%; top: 50%; transform: translate(-50%, -50%); width: 579.5999999999999px; height: 528.5px;""><div id=""black-distractor-element"" class=""box"" style=""position: absolute; left: 166.5333333333333px; top: 41.7px; width: 40px; height: 80px; background-color: black;""></div><div id=""black-distractor-element"" class=""box"" style=""position: absolute; left: 373.0666666666666px; top: 41.7px; width: 40px; height: 80px; background-color: black;""></div><div id=""black-distractor-element"" class=""box"" style=""position: absolute; left: 166.5333333333333px; top: 163.4px; width: 40px; height: 80px; background-color: black;""></div><div id=""black-distractor-element"" class=""box"" style=""position: absolute; left: 373.0666666666666px; top: 163.4px; width: 40px; height: 80px; background-color: black;""></div><div id=""black-distractor-element"" class=""box"" style=""position: absolute; left: 166.5333333333333px; top: 285.1px; width: 40px; height: 80px; background-color: black;""></div><div id=""black-distractor-element"" class=""box"" style=""position: absolute; left: 373.0666666666666px; top: 285.1px; width: 40px; height: 80px; background-color: black;""></div><div id=""black-distractor-element"" class=""box"" style=""position: absolute; left: 166.5333333333333px; top: 406.8px; width: 40px; height: 80px; background-color: black;""></div><div id=""black-distractor-element"" class=""box"" style=""position: absolute; left: 373.0666666666666px; top: 406.8px; width: 40px; height: 80px; background-color: black;""></div></div>",",",practice_trial,2000.0,,practice,0.0,1500.0,"['.', ',']",0.0,8.0,feature,",",1,,,,,
10,,html-keyboard-response,10,13098,0.0-2.0-7.0,,<div class = centerbox><p class = center-block-text>Correct!</div></div>,,practice_feedback,500.0,,practice,0.0,500.0,,,,,,,,,,,
11,,html-keyboard-response,11,14268,0.0-2.0-8.0,,<div class = centerbox><div class = fixation>+</div></div>,,practice_ITI,1166.0220943101156,,practice,0.0,1166.0220943101156,,,,,,,"{'min': 0, 'max': 5, 'mean': 0.5}",,,,
12,,html-keyboard-response,12,14775,0.0-2.0-9.0,,"<div class=""centerbox""><div class=""fixation"">+</div></div>",,practice_fixation,500.0,,practice,0.0,500.0,,,,,,,,,,,
13,,html-keyboard-response,13,16780,0.0-2.0-10.0,405.0,"<div class=""container"" style=""position: absolute; left: 50%; top: 50%; transform: translate(-50%, -50%); width: 579.5999999999999px; height: 528.5px;""><div id=""black-distractor-element"" class=""box"" style=""position: absolute; left: 166.5333333333333px; top: 41.7px; width: 40px; height: 80px; background-color: black;""></div><div id=""black-distractor-element"" class=""box"" style=""position: absolute; left: 373.0666666666666px; top: 41.7px; width: 40px; height: 80px; background-color: black;""></div><div id=""black-distractor-element"" class=""box"" style=""position: absolute; left: 166.5333333333333px; top: 163.4px; width: 40px; height: 80px; background-color: black;""></div><div id=""black-distractor-element"" class=""box"" style=""position: absolute; left: 373.0666666666666px; top: 163.4px; width: 40px; height: 80px; background-color: black;""></div><div id=""black-distractor-element"" class=""box"" style=""position: absolute; left: 166.5333333333333px; top: 285.1px; width: 40px; height: 80px; background-color: black;""></div><div id=""black-distractor-element"" class=""box"" style=""position: absolute; left: 373.0666666666666px; top: 285.1px; width: 40px; height: 80px; background-color: black;""></div><div id=""black-distractor-element"" class=""box"" style=""position: absolute; left: 166.5333333333333px; top: 406.8px; width: 40px; height: 80px; background-color: black;""></div><div id=""black-distractor-element"" class=""box"" style=""position: absolute; left: 373.0666666666666px; top: 406.8px; width: 40px; height: 80px; background-color: black;""></div></div>",",",practice_trial,2000.0,,practice,0.0,1500.0,"['.', ',']",0.0,8.0,feature,",",1,,,,,
14,,html-keyboard-response,14,17286,0.0-2.0-11.0,,<div class = centerbox><p class = center-block-text>Correct!</div></div>,,practice_feedback,500.0,,practice,0.0,500.0,,,,,,,,,,,
15,,html-keyboard-response,15,17746,0.0-2.0-12.0,,<div class = centerbox><div class = fixation>+</div></div>,,practice_ITI,454.4118498615968,,practice,0.0,454.4118498615968,,,,,,,"{'min': 0, 'max': 5, 'mean': 0.5}",,,,
16,,html-keyboard-response,16,18251,0.0-2.0-13.0,,"<div class=""centerbox""><div class=""fixation"">+</div></div>",,practice_fixation,500.0,,practice,0.0,500.0,,,,,,,,,,,
17,,html-keyboard-response,17,20259,0.0-2.0-14.0,592.0,"<div class=""container"" style=""position: absolute; left: 50%; top: 50%; transform: translate(-50%, -50%); width: 579.5999999999999px; height: 528.5px;""><div id=""white-distractor-element""  class=""box"" style=""position: absolute; left: 83.91999999999999px; top: 6.928571428571429px; width: 40px; height: 80px; background-color: white; transform: rotate(90deg); transform-origin: center;""></div><div id=""black-distractor-element""  class=""box"" style=""position: absolute; left: 207.83999999999997px; top: 6.928571428571429px; width: 40px; height: 80px; background-color: black;""></div><div id=""white-distractor-element""  class=""box"" style=""position: absolute; left: 331.76px; top: 6.928571428571429px; width: 40px; height: 80px; background-color: white; transform: rotate(90deg); transform-origin: center;""></div><div id=""black-distractor-element""  class=""box"" style=""position: absolute; left: 455.67999999999995px; top: 6.928571428571429px; width: 40px; height: 80px; background-color: black;""></div><div id=""black-distractor-element""  class=""box"" style=""position: absolute; left: 83.91999999999999px; top: 93.85714285714286px; width: 40px; height: 80px; background-color: black;""></div><div id=""white-distractor-element""  class=""box"" style=""position: absolute; left: 207.83999999999997px; top: 93.85714285714286px; width: 40px; height: 80px; background-color: white; transform: rotate(90deg); transform-origin: center;""></div><div id=""black-distractor-element""  class=""box"" style=""position: absolute; left: 331.76px; top: 93.85714285714286px; width: 40px; height: 80px; background-color: black;""></div><div id=""white-distractor-element""  class=""box"" style=""position: absolute; left: 455.67999999999995px; top: 93.85714285714286px; width: 40px; height: 80px; background-color: white; transform: rotate(90deg); transform-origin: center;""></div><div id=""white-distractor-element""  class=""box"" style=""position: absolute; left: 83.91999999999999px; top: 180.78571428571428px; width: 40px; height: 80px; background-color: white; transform: rotate(90deg); transform-origin: center;""></div><div id=""black-distractor-element""  class=""box"" style=""position: absolute; left: 207.83999999999997px; top: 180.78571428571428px; width: 40px; height: 80px; background-color: black;""></div><div id=""white-distractor-element""  class=""box"" style=""position: absolute; left: 331.76px; top: 180.78571428571428px; width: 40px; height: 80px; background-color: white; transform: rotate(90deg); transform-origin: center;""></div><div id=""white-distractor-element""  class=""box"" style=""position: absolute; left: 455.67999999999995px; top: 180.78571428571428px; width: 40px; height: 80px; background-color: white; transform: rotate(90deg); transform-origin: center;""></div><div id=""black-distractor-element""  class=""box"" style=""position: absolute; left: 83.91999999999999px; top: 267.7142857142857px; width: 40px; height: 80px; background-color: black;""></div><div id=""white-distractor-element""  class=""box"" style=""position: absolute; left: 207.83999999999997px; top: 267.7142857142857px; width: 40px; height: 80px; background-color: white; transform: rotate(90deg); transform-origin: center;""></div><div id=""black-distractor-element""  class=""box"" style=""position: absolute; left: 331.76px; top: 267.7142857142857px; width: 40px; height: 80px; background-color: black;""></div><div id=""white-distractor-element""  class=""box"" style=""position: absolute; left: 455.67999999999995px; top: 267.7142857142857px; width: 40px; height: 80px; background-color: white; transform: rotate(90deg); transform-origin: center;""></div><div id=""white-distractor-element""  class=""box"" style=""position: absolute; left: 83.91999999999999px; top: 354.64285714285717px; width: 40px; height: 80px; background-color: white; transform: rotate(90deg); transform-origin: center;""></div><div id=""target"" class=""box"" style=""position: absolute; left: 207.83999999999997px; top: 354.64285714285717px; width: 40px; height: 80px; background-color: white;""></div><div id=""white-distractor-element""  class=""box"" style=""position: absolute; left: 331.76px; top: 354.64285714285717px; width: 40px; height: 80px; background-color: white; transform: rotate(90deg); transform-origin: center;""></div><div id=""black-distractor-element""  class=""box"" style=""position: absolute; left: 455.67999999999995px; top: 354.64285714285717px; width: 40px; height: 80px; background-color: black;""></div><div id=""black-distractor-element""  class=""box"" style=""position: absolute; left: 83.91999999999999px; top: 441.57142857142856px; width: 40px; height: 80px; background-color: black;""></div><div id=""white-distractor-element""  class=""box"" style=""position: absolute; left: 207.83999999999997px; top: 441.57142857142856px; width: 40px; height: 80px; background-color: white; transform: rotate(90deg); transform-origin: center;""></div><div id=""white-distractor-element""  class=""box"" style=""position: absolute; left: 331.76px; top: 441.57142857142856px; width: 40px; height: 80px; background-color: white; transform: rotate(90deg); transform-origin: center;""></div><div id=""white-distractor-element""  class=""box"" style=""position: absolute; left: 455.67999999999995px; top: 441.57142857142856px; width: 40px; height: 80px; background-color: white; transform: rotate(90deg); transform-origin: center;""></div></div>",.,practice_trial,2000.0,,practice,0.0,1500.0,"['.', ',']",1.0,24.0,conjunction,.,1,,,,,
18,,html-keyboard-response,18,20762,0.0-2.0-15.0,,<div class = centerbox><p class = center-block-text>Correct!</div></div>,,practice_feedback,500.0,,practice,0.0,500.0,,,,,,,,,,,
19,,html-keyboard-response,19,21313,0.0-2.0-16.0,,<div class = centerbox><div class = fixation>+</div></div>,,practice_ITI,546.5221769578209,,practice,0.0,546.5221769578209,,,,,,,"{'min': 0, 'max': 5, 'mean': 0.5}",,,,
20,,html-keyboard-response,20,22123,0.0-3.0-0.0,806.0,"<div class = bigbox><div class = picture_box><p class = block-text>
    
      <div class=""centerbox"">
        <p class=""center-block-text"">We will now start the test portion.</p>
        <p class=""block-text"">Keep your <b>middle finger</b> on the <b>period key (.)</b> and your <b>index finger</b> on the <b>comma key (,)</b></p>
        <p class=""block-text"">Press <i>enter</i> to continue.</p>
      </div>
    </font></p></div></div>",enter,test_feedback,60000.0,,test,0.0,,,,,,,,,,,,
21,,html-keyboard-response,21,24277,0.0-3.0-1.0-0.0,1148.0,,l,test_attention_check,,,test,0.0,,,,,,,False,,<p class='block-text'>Press the key for the second to last letter of the English alphabet.</p> <div class=block-text>This screen will advance automatically in 1 minute.</div>,89.0,,
22,,html-keyboard-response,22,24779,0.0-3.0-2.0,,"<div class=""centerbox""><div class=""fixation"">+</div></div>",,test_fixation,500.0,,test,0.0,500.0,,,,,,,,,,,
23,,html-keyboard-response,23,26786,0.0-3.0-3.0,729.0,"<div class=""container"" style=""position: absolute; left: 50%; top: 50%; transform: translate(-50%, -50%); width: 579.5999999999999px; height: 528.5px;""><div id=""black-distractor-element""  class=""box"" style=""position: absolute; left: 83.91999999999999px; top: 6.928571428571429px; width: 40px; height: 80px; background-color: black;""></div><div id=""black-distractor-element""  class=""box"" style=""position: absolute; left: 207.83999999999997px; top: 6.928571428571429px; width: 40px; height: 80px; background-color: black;""></div><div id=""target"" class=""box"" style=""position: absolute; left: 331.76px; top: 6.928571428571429px; width: 40px; height: 80px; background-color: white;""></div><div id=""white-distractor-element""  class=""box"" style=""position: absolute; left: 455.67999999999995px; top: 6.928571428571429px; width: 40px; height: 80px; background-color: white; transform: rotate(90deg); transform-origin: center;""></div><div id=""white-distractor-element""  class=""box"" style=""position: absolute; left: 83.91999999999999px; top: 93.85714285714286px; width: 40px; height: 80px; background-color: white; transform: rotate(90deg); transform-origin: center;""></div><div id=""black-distractor-element""  class=""box"" style=""position: absolute; left: 207.83999999999997px; top: 93.85714285714286px; width: 40px; height: 80px; background-color: black;""></div><div id=""white-distractor-element""  class=""box"" style=""position: absolute; left: 331.76px; top: 93.85714285714286px; width: 40px; height: 80px; background-color: white; transform: rotate(90deg); transform-origin: center;""></div><div id=""white-distractor-element""  class=""box"" style=""position: absolute; left: 455.67999999999995px; top: 93.85714285714286px; width: 40px; height: 80px; background-color: white; transform: rotate(90deg); transform-origin: center;""></div><div id=""black-distractor-element""  class=""box"" style=""position: absolute; left: 83.91999999999999px; top: 180.78571428571428px; width: 40px; height: 80px; background-color: black;""></div><div id=""black-distractor-element""  class=""box"" style=""position: absolute; left: 207.83999999999997px; top: 180.78571428571428px; width: 40px; height: 80px; background-color: black;""></div><div id=""white-distractor-element""  class=""box"" style=""position: absolute; left: 331.76px; top: 180.78571428571428px; width: 40px; height: 80px; background-color: white; transform: rotate(90deg); transform-origin: center;""></div><div id=""black-distractor-element""  class=""box"" style=""position: absolute; left: 455.67999999999995px; top: 180.78571428571428px; width: 40px; height: 80px; background-color: black;""></div><div id=""white-distractor-element""  class=""box"" style=""position: absolute; left: 83.91999999999999px; top: 267.7142857142857px; width: 40px; height: 80px; background-color: white; transform: rotate(90deg); transform-origin: center;""></div><div id=""white-distractor-element""  class=""box"" style=""position: absolute; left: 207.83999999999997px; top: 267.7142857142857px; width: 40px; height: 80px; background-color: white; transform: rotate(90deg); transform-origin: center;""></div><div id=""black-distractor-element""  class=""box"" style=""position: absolute; left: 331.76px; top: 267.7142857142857px; width: 40px; height: 80px; background-color: black;""></div><div id=""white-distractor-element""  class=""box"" style=""position: absolute; left: 455.67999999999995px; top: 267.7142857142857px; width: 40px; height: 80px; background-color: white; transform: rotate(90deg); transform-origin: center;""></div><div id=""black-distractor-element""  class=""box"" style=""position: absolute; left: 83.91999999999999px; top: 354.64285714285717px; width: 40px; height: 80px; background-color: black;""></div><div id=""white-distractor-element""  class=""box"" style=""position: absolute; left: 207.83999999999997px; top: 354.64285714285717px; width: 40px; height: 80px; background-color: white; transform: rotate(90deg); transform-origin: center;""></div><div id=""black-distractor-element""  class=""box"" style=""position: absolute; left: 331.76px; top: 354.64285714285717px; width: 40px; height: 80px; background-color: black;""></div><div id=""white-distractor-element""  class=""box"" style=""position: absolute; left: 455.67999999999995px; top: 354.64285714285717px; width: 40px; height: 80px; background-color: white; transform: rotate(90deg); transform-origin: center;""></div><div id=""white-distractor-element""  class=""box"" style=""position: absolute; left: 83.91999999999999px; top: 441.57142857142856px; width: 40px; height: 80px; background-color: white; transform: rotate(90deg); transform-origin: center;""></div><div id=""white-distractor-element""  class=""box"" style=""position: absolute; left: 207.83999999999997px; top: 441.57142857142856px; width: 40px; height: 80px; background-color: white; transform: rotate(90deg); transform-origin: center;""></div><div id=""black-distractor-element""  class=""box"" style=""position: absolute; left: 331.76px; top: 441.57142857142856px; width: 40px; height: 80px; background-color: black;""></div><div id=""white-distractor-element""  class=""box"" style=""position: absolute; left: 455.67999999999995px; top: 441.57142857142856px; width: 40px; height: 80px; background-color: white; transform: rotate(90deg); transform-origin: center;""></div></div>",.,test_trial,2000.0,,test,0.0,1500.0,"['.', ',']",1.0,24.0,conjunction,.,1,,,,,
24,,html-keyboard-response,24,27077,0.0-3.0-4.0,,<div class = centerbox><div class = fixation>+</div></div>,,test_ITI,290.5295997570559,,test,0.0,290.5295997570559,,,,,,,"{'min': 0, 'max': 5, 'mean': 0.5}",,,,
25,,html-keyboard-response,25,27581,0.0-3.0-5.0,,"<div class=""centerbox""><div class=""fixation"">+</div></div>",,test_fixation,500.0,,test,0.0,500.0,,,,,,,,,,,
26,,html-keyboard-response,26,29586,0.0-3.0-6.0,638.0,"<div class=""container"" style=""position: absolute; left: 50%; top: 50%; transform: translate(-50%, -50%); width: 579.5999999999999px; height: 528.5px;""><div id=""black-distractor-element""  class=""box"" style=""position: absolute; left: 166.5333333333333px; top: 41.7px; width: 40px; height: 80px; background-color: black;""></div><div id=""white-distractor-element""  class=""box"" style=""position: absolute; left: 373.0666666666666px; top: 41.7px; width: 40px; height: 80px; background-color: white; transform: rotate(90deg); transform-origin: center;""></div><div id=""black-distractor-element""  class=""box"" style=""position: absolute; left: 166.5333333333333px; top: 163.4px; width: 40px; height: 80px; background-color: black;""></div><div id=""black-distractor-element""  class=""box"" style=""position: absolute; left: 373.0666666666666px; top: 163.4px; width: 40px; height: 80px; background-color: black;""></div><div id=""white-distractor-element""  class=""box"" style=""position: absolute; left: 166.5333333333333px; top: 285.1px; width: 40px; height: 80px; background-color: white; transform: rotate(90deg); transform-origin: center;""></div><div id=""black-distractor-element""  class=""box"" style=""position: absolute; left: 373.0666666666666px; top: 285.1px; width: 40px; height: 80px; background-color: black;""></div><div id=""black-distractor-element""  class=""box"" style=""position: absolute; left: 166.5333333333333px; top: 406.8px; width: 40px; height: 80px; background-color: black;""></div><div id=""white-distractor-element""  class=""box"" style=""position: absolute; left: 373.0666666666666px; top: 406.8px; width: 40px; height: 80px; background-color: white; transform: rotate(90deg); transform-origin: center;""></div></div>",",",test_trial,2000.0,,test,0.0,1500.0,"['.', ',']",0.0,8.0,conjunction,",",1,,,,,
27,,html-keyboard-response,27,30178,0.0-3.0-7.0,,<div class = centerbox><div class = fixation>+</div></div>,,test_ITI,585.7376096273302,,test,0.0,585.7376096273302,,,,,,,"{'min': 0, 'max': 5, 'mean': 0.5}",,,,
28,,html-keyboard-response,28,30684,0.0-3.0-8.0,,"<div class=""centerbox""><div class=""fixation"">+</div></div>",,test_fixation,500.0,,test,0.0,500.0,,,,,,,,,,,
29,,html-keyboard-response,29,32686,0.0-3.0-9.0,,"<div class=""container"" style=""position: absolute; left: 50%; top: 50%; transform: translate(-50%, -50%); width: 579.5999999999999px; height: 528.5px;""><div id=""black-distractor-element"" class=""box"" style=""position: absolute; left: 166.5333333333333px; top: 41.7px; width: 40px; height: 80px; background-color: black;""></div><div id=""black-distractor-element"" class=""box"" style=""position: absolute; left: 373.0666666666666px; top: 41.7px; width: 40px; height: 80px; background-color: black;""></div><div id=""black-distractor-element"" class=""box"" style=""position: absolute; left: 166.5333333333333px; top: 163.4px; width: 40px; height: 80px; background-color: black;""></div><div id=""black-distractor-element"" class=""box"" style=""position: absolute; left: 373.0666666666666px; top: 163.4px; width: 40px; height: 80px; background-color: black;""></div><div id=""black-distractor-element"" class=""box"" style=""position: absolute; left: 166.5333333333333px; top: 285.1px; width: 40px; height: 80px; background-color: black;""></div><div id=""target"" class=""box"" style=""position: absolute; left: 373.0666666666666px; top: 285.1px; width: 40px; height: 80px; background-color: white;""></div><div id=""black-distractor-element"" class=""box"" style=""position: absolute; left: 166.5333333333333px; top: 406.8px; width: 40px; height: 80px; background-color: black;""></div><div id=""black-distractor-element"" class=""box"" style=""position: absolute; left: 373.0666666666666px; top: 406.8px; width: 40px; height: 80px; background-color: black;""></div></div>",,test_trial,2000.0,,test,0.0,1500.0,"['.', ',']",1.0,8.0,feature,.,,,,,,
30,,html-keyboard-response,30,33849,0.0-3.0-10.0,,<div class = centerbox><div class = fixation>+</div></div>,,test_ITI,1157.2706969846836,,test,0.0,1157.2706969846836,,,,,,,"{'min': 0, 'max': 5, 'mean': 0.5}",,,,
31,,html-keyboard-response,31,34356,0.0-3.0-11.0,,"<div class=""centerbox""><div class=""fixation"">+</div></div>",,test_fixation,500.0,,test,0.0,500.0,,,,,,,,,,,
32,,html-keyboard-response,32,36364,0.0-3.0-12.0,,"<div class=""container"" style=""position: absolute; left: 50%; top: 50%; transform: translate(-50%, -50%); width: 579.5999999999999px; height: 528.5px;""><div id=""black-distractor-element""  class=""box"" style=""position: absolute; left: 83.91999999999999px; top: 6.928571428571429px; width: 40px; height: 80px; background-color: black;""></div><div id=""white-distractor-element""  class=""box"" style=""position: absolute; left: 207.83999999999997px; top: 6.928571428571429px; width: 40px; height: 80px; background-color: white; transform: rotate(90deg); transform-origin: center;""></div><div id=""white-distractor-element""  class=""box"" style=""position: absolute; left: 331.76px; top: 6.928571428571429px; width: 40px; height: 80px; background-color: white; transform: rotate(90deg); transform-origin: center;""></div><div id=""black-distractor-element""  class=""box"" style=""position: absolute; left: 455.67999999999995px; top: 6.928571428571429px; width: 40px; height: 80px; background-color: black;""></div><div id=""black-distractor-element""  class=""box"" style=""position: absolute; left: 83.91999999999999px; top: 93.85714285714286px; width: 40px; height: 80px; background-color: black;""></div><div id=""black-distractor-element""  class=""box"" style=""position: absolute; left: 207.83999999999997px; top: 93.85714285714286px; width: 40px; height: 80px; background-color: black;""></div><div id=""black-distractor-element""  class=""box"" style=""position: absolute; left: 331.76px; top: 93.85714285714286px; width: 40px; height: 80px; background-color: black;""></div><div id=""white-distractor-element""  class=""box"" style=""position: absolute; left: 455.67999999999995px; top: 93.85714285714286px; width: 40px; height: 80px; background-color: white; transform: rotate(90deg); transform-origin: center;""></div><div id=""black-distractor-element""  class=""box"" style=""position: absolute; left: 83.91999999999999px; top: 180.78571428571428px; width: 40px; height: 80px; background-color: black;""></div><div id=""black-distractor-element""  class=""box"" style=""position: absolute; left: 207.83999999999997px; top: 180.78571428571428px; width: 40px; height: 80px; background-color: black;""></div><div id=""black-distractor-element""  class=""box"" style=""position: absolute; left: 331.76px; top: 180.78571428571428px; width: 40px; height: 80px; background-color: black;""></div><div id=""white-distractor-element""  class=""box"" style=""position: absolute; left: 455.67999999999995px; top: 180.78571428571428px; width: 40px; height: 80px; background-color: white; transform: rotate(90deg); transform-origin: center;""></div><div id=""black-distractor-element""  class=""box"" style=""position: absolute; left: 83.91999999999999px; top: 267.7142857142857px; width: 40px; height: 80px; background-color: black;""></div><div id=""white-distractor-element""  class=""box"" style=""position: absolute; left: 207.83999999999997px; top: 267.7142857142857px; width: 40px; height: 80px; background-color: white; transform: rotate(90deg); transform-origin: center;""></div><div id=""black-distractor-element""  class=""box"" style=""position: absolute; left: 331.76px; top: 267.7142857142857px; width: 40px; height: 80px; background-color: black;""></div><div id=""white-distractor-element""  class=""box"" style=""position: absolute; left: 455.67999999999995px; top: 267.7142857142857px; width: 40px; height: 80px; background-color: white; transform: rotate(90deg); transform-origin: center;""></div><div id=""white-distractor-element""  class=""box"" style=""position: absolute; left: 83.91999999999999px; top: 354.64285714285717px; width: 40px; height: 80px; background-color: white; transform: rotate(90deg); transform-origin: center;""></div><div id=""black-distractor-element""  class=""box"" style=""position: absolute; left: 207.83999999999997px; top: 354.64285714285717px; width: 40px; height: 80px; background-color: black;""></div><div id=""black-distractor-element""  class=""box"" style=""position: absolute; left: 331.76px; top: 354.64285714285717px; width: 40px; height: 80px; background-color: black;""></div><div id=""white-distractor-element""  class=""box"" style=""position: absolute; left: 455.67999999999995px; top: 354.64285714285717px; width: 40px; height: 80px; background-color: white; transform: rotate(90deg); transform-origin: center;""></div><div id=""white-distractor-element""  class=""box"" style=""position: absolute; left: 83.91999999999999px; top: 441.57142857142856px; width: 40px; height: 80px; background-color: white; transform: rotate(90deg); transform-origin: center;""></div><div id=""black-distractor-element""  class=""box"" style=""position: absolute; left: 207.83999999999997px; top: 441.57142857142856px; width: 40px; height: 80px; background-color: black;""></div><div id=""white-distractor-element""  class=""box"" style=""position: absolute; left: 331.76px; top: 441.57142857142856px; width: 40px; height: 80px; background-color: white; transform: rotate(90deg); transform-origin: center;""></div><div id=""black-distractor-element""  class=""box"" style=""position: absolute; left: 455.67999999999995px; top: 441.57142857142856px; width: 40px; height: 80px; background-color: black;""></div></div>",,test_trial,2000.0,,test,0.0,1500.0,"['.', ',']",0.0,24.0,conjunction,",",,,,,,
33,,html-keyboard-response,33,36455,0.0-3.0-13.0,,<div class = centerbox><div class = fixation>+</div></div>,,test_ITI,89.8576477860288,,test,0.0,89.8576477860288,,,,,,,"{'min': 0, 'max': 5, 'mean': 0.5}",,,,
34,,html-keyboard-response,34,36958,0.0-3.0-14.0,,"<div class=""centerbox""><div class=""fixation"">+</div></div>",,test_fixation,500.0,,test,0.0,500.0,,,,,,,,,,,
35,,html-keyboard-response,35,38964,0.0-3.0-15.0,,"<div class=""container"" style=""position: absolute; left: 50%; top: 50%; transform: translate(-50%, -50%); width: 579.5999999999999px; height: 528.5px;""><div id=""black-distractor-element"" class=""box"" style=""position: absolute; left: 166.5333333333333px; top: 41.7px; width: 40px; height: 80px; background-color: black;""></div><div id=""black-distractor-element"" class=""box"" style=""position: absolute; left: 373.0666666666666px; top: 41.7px; width: 40px; height: 80px; background-color: black;""></div><div id=""black-distractor-element"" class=""box"" style=""position: absolute; left: 166.5333333333333px; top: 163.4px; width: 40px; height: 80px; background-color: black;""></div><div id=""black-distractor-element"" class=""box"" style=""position: absolute; left: 373.0666666666666px; top: 163.4px; width: 40px; height: 80px; background-color: black;""></div><div id=""target"" class=""box"" style=""position: absolute; left: 166.5333333333333px; top: 285.1px; width: 40px; height: 80px; background-color: white;""></div><div id=""black-distractor-element"" class=""box"" style=""position: absolute; left: 373.0666666666666px; top: 285.1px; width: 40px; height: 80px; background-color: black;""></div><div id=""black-distractor-element"" class=""box"" style=""position: absolute; left: 166.5333333333333px; top: 406.8px; width: 40px; height: 80px; background-color: black;""></div><div id=""black-distractor-element"" class=""box"" style=""position: absolute; left: 373.0666666666666px; top: 406.8px; width: 40px; height: 80px; background-color: black;""></div></div>",,test_trial,2000.0,,test,0.0,1500.0,"['.', ',']",1.0,8.0,feature,.,,,,,,
36,,html-keyboard-response,36,39916,0.0-3.0-16.0,,<div class = centerbox><div class = fixation>+</div></div>,,test_ITI,946.1728852458605,,test,0.0,946.1728852458605,,,,,,,"{'min': 0, 'max': 5, 'mean': 0.5}",,,,
37,,html-keyboard-response,37,40420,0.0-3.0-17.0,,"<div class=""centerbox""><div class=""fixation"">+</div></div>",,test_fixation,500.0,,test,0.0,500.0,,,,,,,,,,,
38,,html-keyboard-response,38,42427,0.0-3.0-18.0,,"<div class=""container"" style=""position: absolute; left: 50%; top: 50%; transform: translate(-50%, -50%); width: 579.5999999999999px; height: 528.5px;""><div id=""black-distractor-element""  class=""box"" style=""position: absolute; left: 83.91999999999999px; top: 6.928571428571429px; width: 40px; height: 80px; background-color: black;""></div><div id=""black-distractor-element""  class=""box"" style=""position: absolute; left: 207.83999999999997px; top: 6.928571428571429px; width: 40px; height: 80px; background-color: black;""></div><div id=""black-distractor-element""  class=""box"" style=""position: absolute; left: 331.76px; top: 6.928571428571429px; width: 40px; height: 80px; background-color: black;""></div><div id=""black-distractor-element""  class=""box"" style=""position: absolute; left: 455.67999999999995px; top: 6.928571428571429px; width: 40px; height: 80px; background-color: black;""></div><div id=""black-distractor-element""  class=""box"" style=""position: absolute; left: 83.91999999999999px; top: 93.85714285714286px; width: 40px; height: 80px; background-color: black;""></div><div id=""white-distractor-element""  class=""box"" style=""position: absolute; left: 207.83999999999997px; top: 93.85714285714286px; width: 40px; height: 80px; background-color: white; transform: rotate(90deg); transform-origin: center;""></div><div id=""black-distractor-element""  class=""box"" style=""position: absolute; left: 331.76px; top: 93.85714285714286px; width: 40px; height: 80px; background-color: black;""></div><div id=""black-distractor-element""  class=""box"" style=""position: absolute; left: 455.67999999999995px; top: 93.85714285714286px; width: 40px; height: 80px; background-color: black;""></div><div id=""white-distractor-element""  class=""box"" style=""position: absolute; left: 83.91999999999999px; top: 180.78571428571428px; width: 40px; height: 80px; background-color: white; transform: rotate(90deg); transform-origin: center;""></div><div id=""white-distractor-element""  class=""box"" style=""position: absolute; left: 207.83999999999997px; top: 180.78571428571428px; width: 40px; height: 80px; background-color: white; transform: rotate(90deg); transform-origin: center;""></div><div id=""black-distractor-element""  class=""box"" style=""position: absolute; left: 331.76px; top: 180.78571428571428px; width: 40px; height: 80px; background-color: black;""></div><div id=""white-distractor-element""  class=""box"" style=""position: absolute; left: 455.67999999999995px; top: 180.78571428571428px; width: 40px; height: 80px; background-color: white; transform: rotate(90deg); transform-origin: center;""></div><div id=""black-distractor-element""  class=""box"" style=""position: absolute; left: 83.91999999999999px; top: 267.7142857142857px; width: 40px; height: 80px; background-color: black;""></div><div id=""black-distractor-element""  class=""box"" style=""position: absolute; left: 207.83999999999997px; top: 267.7142857142857px; width: 40px; height: 80px; background-color: black;""></div><div id=""black-distractor-element""  class=""box"" style=""position: absolute; left: 331.76px; top: 267.7142857142857px; width: 40px; height: 80px; background-color: black;""></div><div id=""black-distractor-element""  class=""box"" style=""position: absolute; left: 455.67999999999995px; top: 267.7142857142857px; width: 40px; height: 80px; background-color: black;""></div><div id=""white-distractor-element""  class=""box"" style=""position: absolute; left: 83.91999999999999px; top: 354.64285714285717px; width: 40px; height: 80px; background-color: white; transform: rotate(90deg); transform-origin: center;""></div><div id=""white-distractor-element""  class=""box"" style=""position: absolute; left: 207.83999999999997px; top: 354.64285714285717px; width: 40px; height: 80px; background-color: white; transform: rotate(90deg); transform-origin: center;""></div><div id=""black-distractor-element""  class=""box"" style=""position: absolute; left: 331.76px; top: 354.64285714285717px; width: 40px; height: 80px; background-color: black;""></div><div id=""black-distractor-element""  class=""box"" style=""position: absolute; left: 455.67999999999995px; top: 354.64285714285717px; width: 40px; height: 80px; background-color: black;""></div><div id=""white-distractor-element""  class=""box"" style=""position: absolute; left: 83.91999999999999px; top: 441.57142857142856px; width: 40px; height: 80px; background-color: white; transform: rotate(90deg); transform-origin: center;""></div><div id=""black-distractor-element""  class=""box"" style=""position: absolute; left: 207.83999999999997px; top: 441.57142857142856px; width: 40px; height: 80px; background-color: black;""></div><div id=""white-distractor-element""  class=""box"" style=""position: absolute; left: 331.76px; top: 441.57142857142856px; width: 40px; height: 80px; background-color: white; transform: rotate(90deg); transform-origin: center;""></div><div id=""white-distractor-element""  class=""box"" style=""position: absolute; left: 455.67999999999995px; top: 441.57142857142856px; width: 40px; height: 80px; background-color: white; transform: rotate(90deg); transform-origin: center;""></div></div>",,test_trial,2000.0,,test,0.0,1500.0,"['.', ',']",0.0,24.0,conjunction,",",,,,,,
39,,html-keyboard-response,39,42735,0.0-3.0-19.0,,<div class = centerbox><div class = fixation>+</div></div>,,test_ITI,302.58250677500394,,test,0.0,302.58250677500394,,,,,,,"{'min': 0, 'max': 5, 'mean': 0.5}",,,,
40,,html-keyboard-response,40,43242,0.0-3.0-20.0,,"<div class=""centerbox""><div class=""fixation"">+</div></div>",,test_fixation,500.0,,test,0.0,500.0,,,,,,,,,,,
41,,html-keyboard-response,41,45249,0.0-3.0-21.0,,"<div class=""container"" style=""position: absolute; left: 50%; top: 50%; transform: translate(-50%, -50%); width: 579.5999999999999px; height: 528.5px;""><div id=""black-distractor-element""  class=""box"" style=""position: absolute; left: 83.91999999999999px; top: 6.928571428571429px; width: 40px; height: 80px; background-color: black;""></div><div id=""white-distractor-element""  class=""box"" style=""position: absolute; left: 207.83999999999997px; top: 6.928571428571429px; width: 40px; height: 80px; background-color: white; transform: rotate(90deg); transform-origin: center;""></div><div id=""black-distractor-element""  class=""box"" style=""position: absolute; left: 331.76px; top: 6.928571428571429px; width: 40px; height: 80px; background-color: black;""></div><div id=""black-distractor-element""  class=""box"" style=""position: absolute; left: 455.67999999999995px; top: 6.928571428571429px; width: 40px; height: 80px; background-color: black;""></div><div id=""black-distractor-element""  class=""box"" style=""position: absolute; left: 83.91999999999999px; top: 93.85714285714286px; width: 40px; height: 80px; background-color: black;""></div><div id=""black-distractor-element""  class=""box"" style=""position: absolute; left: 207.83999999999997px; top: 93.85714285714286px; width: 40px; height: 80px; background-color: black;""></div><div id=""white-distractor-element""  class=""box"" style=""position: absolute; left: 331.76px; top: 93.85714285714286px; width: 40px; height: 80px; background-color: white; transform: rotate(90deg); transform-origin: center;""></div><div id=""white-distractor-element""  class=""box"" style=""position: absolute; left: 455.67999999999995px; top: 93.85714285714286px; width: 40px; height: 80px; background-color: white; transform: rotate(90deg); transform-origin: center;""></div><div id=""black-distractor-element""  class=""box"" style=""position: absolute; left: 83.91999999999999px; top: 180.78571428571428px; width: 40px; height: 80px; background-color: black;""></div><div id=""black-distractor-element""  class=""box"" style=""position: absolute; left: 207.83999999999997px; top: 180.78571428571428px; width: 40px; height: 80px; background-color: black;""></div><div id=""black-distractor-element""  class=""box"" style=""position: absolute; left: 331.76px; top: 180.78571428571428px; width: 40px; height: 80px; background-color: black;""></div><div id=""black-distractor-element""  class=""box"" style=""position: absolute; left: 455.67999999999995px; top: 180.78571428571428px; width: 40px; height: 80px; background-color: black;""></div><div id=""black-distractor-element""  class=""box"" style=""position: absolute; left: 83.91999999999999px; top: 267.7142857142857px; width: 40px; height: 80px; background-color: black;""></div><div id=""white-distractor-element""  class=""box"" style=""position: absolute; left: 207.83999999999997px; top: 267.7142857142857px; width: 40px; height: 80px; background-color: white; transform: rotate(90deg); transform-origin: center;""></div><div id=""white-distractor-element""  class=""box"" style=""position: absolute; left: 331.76px; top: 267.7142857142857px; width: 40px; height: 80px; background-color: white; transform: rotate(90deg); transform-origin: center;""></div><div id=""black-distractor-element""  class=""box"" style=""position: absolute; left: 455.67999999999995px; top: 267.7142857142857px; width: 40px; height: 80px; background-color: black;""></div><div id=""white-distractor-element""  class=""box"" style=""position: absolute; left: 83.91999999999999px; top: 354.64285714285717px; width: 40px; height: 80px; background-color: white; transform: rotate(90deg); transform-origin: center;""></div><div id=""target"" class=""box"" style=""position: absolute; left: 207.83999999999997px; top: 354.64285714285717px; width: 40px; height: 80px; background-color: white;""></div><div id=""white-distractor-element""  class=""box"" style=""position: absolute; left: 331.76px; top: 354.64285714285717px; width: 40px; height: 80px; background-color: white; transform: rotate(90deg); transform-origin: center;""></div><div id=""black-distractor-element""  class=""box"" style=""position: absolute; left: 455.67999999999995px; top: 354.64285714285717px; width: 40px; height: 80px; background-color: black;""></div><div id=""black-distractor-element""  class=""box"" style=""position: absolute; left: 83.91999999999999px; top: 441.57142857142856px; width: 40px; height: 80px; background-color: black;""></div><div id=""black-distractor-element""  class=""box"" style=""position: absolute; left: 207.83999999999997px; top: 441.57142857142856px; width: 40px; height: 80px; background-color: black;""></div><div id=""white-distractor-element""  class=""box"" style=""position: absolute; left: 331.76px; top: 441.57142857142856px; width: 40px; height: 80px; background-color: white; transform: rotate(90deg); transform-origin: center;""></div><div id=""black-distractor-element""  class=""box"" style=""position: absolute; left: 455.67999999999995px; top: 441.57142857142856px; width: 40px; height: 80px; background-color: black;""></div></div>",,test_trial,2000.0,,test,0.0,1500.0,"['.', ',']",1.0,24.0,conjunction,.,,,,,,
42,,html-keyboard-response,42,45379,0.0-3.0-22.0,,<div class = centerbox><div class = fixation>+</div></div>,,test_ITI,123.14863961274874,,test,0.0,123.14863961274874,,,,,,,"{'min': 0, 'max': 5, 'mean': 0.5}",,,,
43,,html-keyboard-response,43,45885,0.0-3.0-23.0,,"<div class=""centerbox""><div class=""fixation"">+</div></div>",,test_fixation,500.0,,test,0.0,500.0,,,,,,,,,,,
44,,html-keyboard-response,44,47890,0.0-3.0-24.0,,"<div class=""container"" style=""position: absolute; left: 50%; top: 50%; transform: translate(-50%, -50%); width: 579.5999999999999px; height: 528.5px;""><div id=""white-distractor-element""  class=""box"" style=""position: absolute; left: 166.5333333333333px; top: 41.7px; width: 40px; height: 80px; background-color: white; transform: rotate(90deg); transform-origin: center;""></div><div id=""black-distractor-element""  class=""box"" style=""position: absolute; left: 373.0666666666666px; top: 41.7px; width: 40px; height: 80px; background-color: black;""></div><div id=""white-distractor-element""  class=""box"" style=""position: absolute; left: 166.5333333333333px; top: 163.4px; width: 40px; height: 80px; background-color: white; transform: rotate(90deg); transform-origin: center;""></div><div id=""black-distractor-element""  class=""box"" style=""position: absolute; left: 373.0666666666666px; top: 163.4px; width: 40px; height: 80px; background-color: black;""></div><div id=""white-distractor-element""  class=""box"" style=""position: absolute; left: 166.5333333333333px; top: 285.1px; width: 40px; height: 80px; background-color: white; transform: rotate(90deg); transform-origin: center;""></div><div id=""black-distractor-element""  class=""box"" style=""position: absolute; left: 373.0666666666666px; top: 285.1px; width: 40px; height: 80px; background-color: black;""></div><div id=""white-distractor-element""  class=""box"" style=""position: absolute; left: 166.5333333333333px; top: 406.8px; width: 40px; height: 80px; background-color: white; transform: rotate(90deg); transform-origin: center;""></div><div id=""black-distractor-element""  class=""box"" style=""position: absolute; left: 373.0666666666666px; top: 406.8px; width: 40px; height: 80px; background-color: black;""></div></div>",,test_trial,2000.0,,test,0.0,1500.0,"['.', ',']",0.0,8.0,conjunction,",",,,,,,
45,,html-keyboard-response,45,48491,0.0-3.0-25.0,,<div class = centerbox><div class = fixation>+</div></div>,,test_ITI,598.9430001864109,,test,0.0,598.9430001864109,,,,,,,"{'min': 0, 'max': 5, 'mean': 0.5}",,,,
46,,html-keyboard-response,46,48993,0.0-3.0-26.0,,"<div class=""centerbox""><div class=""fixation"">+</div></div>",,test_fixation,500.0,,test,0.0,500.0,,,,,,,,,,,
47,,html-keyboard-response,47,51000,0.0-3.0-27.0,,"<div class=""container"" style=""position: absolute; left: 50%; top: 50%; transform: translate(-50%, -50%); width: 579.5999999999999px; height: 528.5px;""><div id=""black-distractor-element"" class=""box"" style=""position: absolute; left: 166.5333333333333px; top: 41.7px; width: 40px; height: 80px; background-color: black;""></div><div id=""black-distractor-element"" class=""box"" style=""position: absolute; left: 373.0666666666666px; top: 41.7px; width: 40px; height: 80px; background-color: black;""></div><div id=""black-distractor-element"" class=""box"" style=""position: absolute; left: 166.5333333333333px; top: 163.4px; width: 40px; height: 80px; background-color: black;""></div><div id=""black-distractor-element"" class=""box"" style=""position: absolute; left: 373.0666666666666px; top: 163.4px; width: 40px; height: 80px; background-color: black;""></div><div id=""black-distractor-element"" class=""box"" style=""position: absolute; left: 166.5333333333333px; top: 285.1px; width: 40px; height: 80px; background-color: black;""></div><div id=""black-distractor-element"" class=""box"" style=""position: absolute; left: 373.0666666666666px; top: 285.1px; width: 40px; height: 80px; background-color: black;""></div><div id=""black-distractor-element"" class=""box"" style=""position: absolute; left: 166.5333333333333px; top: 406.8px; width: 40px; height: 80px; background-color: black;""></div><div id=""black-distractor-element"" class=""box"" style=""position: absolute; left: 373.0666666666666px; top: 406.8px; width: 40px; height: 80px; background-color: black;""></div></div>",,test_trial,2000.0,,test,0.0,1500.0,"['.', ',']",0.0,8.0,feature,",",,,,,,
48,,html-keyboard-response,48,51332,0.0-3.0-28.0,,<div class = centerbox><div class = fixation>+</div></div>,,test_ITI,329.3882690449283,,test,0.0,329.3882690449283,,,,,,,"{'min': 0, 'max': 5, 'mean': 0.5}",,,,
49,,html-keyboard-response,49,51839,0.0-3.0-29.0,,"<div class=""centerbox""><div class=""fixation"">+</div></div>",,test_fixation,500.0,,test,0.0,500.0,,,,,,,,,,,
50,,html-keyboard-response,50,53845,0.0-3.0-30.0,,"<div class=""container"" style=""position: absolute; left: 50%; top: 50%; transform: translate(-50%, -50%); width: 579.5999999999999px; height: 528.5px;""><div id=""black-distractor-element""  class=""box"" style=""position: absolute; left: 83.91999999999999px; top: 6.928571428571429px; width: 40px; height: 80px; background-color: black;""></div><div id=""black-distractor-element""  class=""box"" style=""position: absolute; left: 207.83999999999997px; top: 6.928571428571429px; width: 40px; height: 80px; background-color: black;""></div><div id=""white-distractor-element""  class=""box"" style=""position: absolute; left: 331.76px; top: 6.928571428571429px; width: 40px; height: 80px; background-color: white; transform: rotate(90deg); transform-origin: center;""></div><div id=""white-distractor-element""  class=""box"" style=""position: absolute; left: 455.67999999999995px; top: 6.928571428571429px; width: 40px; height: 80px; background-color: white; transform: rotate(90deg); transform-origin: center;""></div><div id=""white-distractor-element""  class=""box"" style=""position: absolute; left: 83.91999999999999px; top: 93.85714285714286px; width: 40px; height: 80px; background-color: white; transform: rotate(90deg); transform-origin: center;""></div><div id=""black-distractor-element""  class=""box"" style=""position: absolute; left: 207.83999999999997px; top: 93.85714285714286px; width: 40px; height: 80px; background-color: black;""></div><div id=""white-distractor-element""  class=""box"" style=""position: absolute; left: 331.76px; top: 93.85714285714286px; width: 40px; height: 80px; background-color: white; transform: rotate(90deg); transform-origin: center;""></div><div id=""black-distractor-element""  class=""box"" style=""position: absolute; left: 455.67999999999995px; top: 93.85714285714286px; width: 40px; height: 80px; background-color: black;""></div><div id=""black-distractor-element""  class=""box"" style=""position: absolute; left: 83.91999999999999px; top: 180.78571428571428px; width: 40px; height: 80px; background-color: black;""></div><div id=""black-distractor-element""  class=""box"" style=""position: absolute; left: 207.83999999999997px; top: 180.78571428571428px; width: 40px; height: 80px; background-color: black;""></div><div id=""white-distractor-element""  class=""box"" style=""position: absolute; left: 331.76px; top: 180.78571428571428px; width: 40px; height: 80px; background-color: white; transform: rotate(90deg); transform-origin: center;""></div><div id=""white-distractor-element""  class=""box"" style=""position: absolute; left: 455.67999999999995px; top: 180.78571428571428px; width: 40px; height: 80px; background-color: white; transform: rotate(90deg); transform-origin: center;""></div><div id=""white-distractor-element""  class=""box"" style=""position: absolute; left: 83.91999999999999px; top: 267.7142857142857px; width: 40px; height: 80px; background-color: white; transform: rotate(90deg); transform-origin: center;""></div><div id=""white-distractor-element""  class=""box"" style=""position: absolute; left: 207.83999999999997px; top: 267.7142857142857px; width: 40px; height: 80px; background-color: white; transform: rotate(90deg); transform-origin: center;""></div><div id=""black-distractor-element""  class=""box"" style=""position: absolute; left: 331.76px; top: 267.7142857142857px; width: 40px; height: 80px; background-color: black;""></div><div id=""black-distractor-element""  class=""box"" style=""position: absolute; left: 455.67999999999995px; top: 267.7142857142857px; width: 40px; height: 80px; background-color: black;""></div><div id=""black-distractor-element""  class=""box"" style=""position: absolute; left: 83.91999999999999px; top: 354.64285714285717px; width: 40px; height: 80px; background-color: black;""></div><div id=""white-distractor-element""  class=""box"" style=""position: absolute; left: 207.83999999999997px; top: 354.64285714285717px; width: 40px; height: 80px; background-color: white; transform: rotate(90deg); transform-origin: center;""></div><div id=""black-distractor-element""  class=""box"" style=""position: absolute; left: 331.76px; top: 354.64285714285717px; width: 40px; height: 80px; background-color: black;""></div><div id=""white-distractor-element""  class=""box"" style=""position: absolute; left: 455.67999999999995px; top: 354.64285714285717px; width: 40px; height: 80px; background-color: white; transform: rotate(90deg); transform-origin: center;""></div><div id=""black-distractor-element""  class=""box"" style=""position: absolute; left: 83.91999999999999px; top: 441.57142857142856px; width: 40px; height: 80px; background-color: black;""></div><div id=""white-distractor-element""  class=""box"" style=""position: absolute; left: 207.83999999999997px; top: 441.57142857142856px; width: 40px; height: 80px; background-color: white; transform: rotate(90deg); transform-origin: center;""></div><div id=""black-distractor-element""  class=""box"" style=""position: absolute; left: 331.76px; top: 441.57142857142856px; width: 40px; height: 80px; background-color: black;""></div><div id=""white-distractor-element""  class=""box"" style=""position: absolute; left: 455.67999999999995px; top: 441.57142857142856px; width: 40px; height: 80px; background-color: white; transform: rotate(90deg); transform-origin: center;""></div></div>",,test_trial,2000.0,,test,0.0,1500.0,"['.', ',']",0.0,24.0,conjunction,",",,,,,,
51,,html-keyboard-response,51,54749,0.0-3.0-31.0,,<div class = centerbox><div class = fixation>+</div></div>,,test_ITI,897.1873009462771,,test,0.0,897.1873009462771,,,,,,,"{'min': 0, 'max': 5, 'mean': 0.5}",,,,
52,,html-keyboard-response,52,55256,0.0-3.0-32.0,,"<div class=""centerbox""><div class=""fixation"">+</div></div>",,test_fixation,500.0,,test,0.0,500.0,,,,,,,,,,,
53,,html-keyboard-response,53,57262,0.0-3.0-33.0,,"<div class=""container"" style=""position: absolute; left: 50%; top: 50%; transform: translate(-50%, -50%); width: 579.5999999999999px; height: 528.5px;""><div id=""white-distractor-element""  class=""box"" style=""position: absolute; left: 166.5333333333333px; top: 41.7px; width: 40px; height: 80px; background-color: white; transform: rotate(90deg); transform-origin: center;""></div><div id=""white-distractor-element""  class=""box"" style=""position: absolute; left: 373.0666666666666px; top: 41.7px; width: 40px; height: 80px; background-color: white; transform: rotate(90deg); transform-origin: center;""></div><div id=""white-distractor-element""  class=""box"" style=""position: absolute; left: 166.5333333333333px; top: 163.4px; width: 40px; height: 80px; background-color: white; transform: rotate(90deg); transform-origin: center;""></div><div id=""black-distractor-element""  class=""box"" style=""position: absolute; left: 373.0666666666666px; top: 163.4px; width: 40px; height: 80px; background-color: black;""></div><div id=""white-distractor-element""  class=""box"" style=""position: absolute; left: 166.5333333333333px; top: 285.1px; width: 40px; height: 80px; background-color: white; transform: rotate(90deg); transform-origin: center;""></div><div id=""target"" class=""box"" style=""position: absolute; left: 373.0666666666666px; top: 285.1px; width: 40px; height: 80px; background-color: white;""></div><div id=""white-distractor-element""  class=""box"" style=""position: absolute; left: 166.5333333333333px; top: 406.8px; width: 40px; height: 80px; background-color: white; transform: rotate(90deg); transform-origin: center;""></div><div id=""black-distractor-element""  class=""box"" style=""position: absolute; left: 373.0666666666666px; top: 406.8px; width: 40px; height: 80px; background-color: black;""></div></div>",,test_trial,2000.0,,test,0.0,1500.0,"['.', ',']",1.0,8.0,conjunction,.,,,,,,
54,,html-keyboard-response,54,57400,0.0-3.0-34.0,,<div class = centerbox><div class = fixation>+</div></div>,,test_ITI,131.40479687117534,,test,0.0,131.40479687117534,,,,,,,"{'min': 0, 'max': 5, 'mean': 0.5}",,,,
55,,html-keyboard-response,55,57907,0.0-3.0-35.0,,"<div class=""centerbox""><div class=""fixation"">+</div></div>",,test_fixation,500.0,,test,0.0,500.0,,,,,,,,,,,
56,,html-keyboard-response,56,59912,0.0-3.0-36.0,,"<div class=""container"" style=""position: absolute; left: 50%; top: 50%; transform: translate(-50%, -50%); width: 579.5999999999999px; height: 528.5px;""><div id=""black-distractor-element""  class=""box"" style=""position: absolute; left: 83.91999999999999px; top: 6.928571428571429px; width: 40px; height: 80px; background-color: black;""></div><div id=""white-distractor-element""  class=""box"" style=""position: absolute; left: 207.83999999999997px; top: 6.928571428571429px; width: 40px; height: 80px; background-color: white; transform: rotate(90deg); transform-origin: center;""></div><div id=""white-distractor-element""  class=""box"" style=""position: absolute; left: 331.76px; top: 6.928571428571429px; width: 40px; height: 80px; background-color: white; transform: rotate(90deg); transform-origin: center;""></div><div id=""white-distractor-element""  class=""box"" style=""position: absolute; left: 455.67999999999995px; top: 6.928571428571429px; width: 40px; height: 80px; background-color: white; transform: rotate(90deg); transform-origin: center;""></div><div id=""white-distractor-element""  class=""box"" style=""position: absolute; left: 83.91999999999999px; top: 93.85714285714286px; width: 40px; height: 80px; background-color: white; transform: rotate(90deg); transform-origin: center;""></div><div id=""black-distractor-element""  class=""box"" style=""position: absolute; left: 207.83999999999997px; top: 93.85714285714286px; width: 40px; height: 80px; background-color: black;""></div><div id=""black-distractor-element""  class=""box"" style=""position: absolute; left: 331.76px; top: 93.85714285714286px; width: 40px; height: 80px; background-color: black;""></div><div id=""black-distractor-element""  class=""box"" style=""position: absolute; left: 455.67999999999995px; top: 93.85714285714286px; width: 40px; height: 80px; background-color: black;""></div><div id=""black-distractor-element""  class=""box"" style=""position: absolute; left: 83.91999999999999px; top: 180.78571428571428px; width: 40px; height: 80px; background-color: black;""></div><div id=""black-distractor-element""  class=""box"" style=""position: absolute; left: 207.83999999999997px; top: 180.78571428571428px; width: 40px; height: 80px; background-color: black;""></div><div id=""white-distractor-element""  class=""box"" style=""position: absolute; left: 331.76px; top: 180.78571428571428px; width: 40px; height: 80px; background-color: white; transform: rotate(90deg); transform-origin: center;""></div><div id=""black-distractor-element""  class=""box"" style=""position: absolute; left: 455.67999999999995px; top: 180.78571428571428px; width: 40px; height: 80px; background-color: black;""></div><div id=""white-distractor-element""  class=""box"" style=""position: absolute; left: 83.91999999999999px; top: 267.7142857142857px; width: 40px; height: 80px; background-color: white; transform: rotate(90deg); transform-origin: center;""></div><div id=""black-distractor-element""  class=""box"" style=""position: absolute; left: 207.83999999999997px; top: 267.7142857142857px; width: 40px; height: 80px; background-color: black;""></div><div id=""white-distractor-element""  class=""box"" style=""position: absolute; left: 331.76px; top: 267.7142857142857px; width: 40px; height: 80px; background-color: white; transform: rotate(90deg); transform-origin: center;""></div><div id=""white-distractor-element""  class=""box"" style=""position: absolute; left: 455.67999999999995px; top: 267.7142857142857px; width: 40px; height: 80px; background-color: white; transform: rotate(90deg); transform-origin: center;""></div><div id=""white-distractor-element""  class=""box"" style=""position: absolute; left: 83.91999999999999px; top: 354.64285714285717px; width: 40px; height: 80px; background-color: white; transform: rotate(90deg); transform-origin: center;""></div><div id=""black-distractor-element""  class=""box"" style=""position: absolute; left: 207.83999999999997px; top: 354.64285714285717px; width: 40px; height: 80px; background-color: black;""></div><div id=""white-distractor-element""  class=""box"" style=""position: absolute; left: 331.76px; top: 354.64285714285717px; width: 40px; height: 80px; background-color: white; transform: rotate(90deg); transform-origin: center;""></div><div id=""black-distractor-element""  class=""box"" style=""position: absolute; left: 455.67999999999995px; top: 354.64285714285717px; width: 40px; height: 80px; background-color: black;""></div><div id=""white-distractor-element""  class=""box"" style=""position: absolute; left: 83.91999999999999px; top: 441.57142857142856px; width: 40px; height: 80px; background-color: white; transform: rotate(90deg); transform-origin: center;""></div><div id=""black-distractor-element""  class=""box"" style=""position: absolute; left: 207.83999999999997px; top: 441.57142857142856px; width: 40px; height: 80px; background-color: black;""></div><div id=""white-distractor-element""  class=""box"" style=""position: absolute; left: 331.76px; top: 441.57142857142856px; width: 40px; height: 80px; background-color: white; transform: rotate(90deg); transform-origin: center;""></div><div id=""black-distractor-element""  class=""box"" style=""position: absolute; left: 455.67999999999995px; top: 441.57142857142856px; width: 40px; height: 80px; background-color: black;""></div></div>",,test_trial,2000.0,,test,0.0,1500.0,"['.', ',']",0.0,24.0,conjunction,",",,,,,,
57,,html-keyboard-response,57,60420,0.0-3.0-37.0,,<div class = centerbox><div class = fixation>+</div></div>,,test_ITI,504.80979993756023,,test,0.0,504.80979993756023,,,,,,,"{'min': 0, 'max': 5, 'mean': 0.5}",,,,
58,,html-keyboard-response,58,60921,0.0-3.0-38.0,,"<div class=""centerbox""><div class=""fixation"">+</div></div>",,test_fixation,500.0,,test,0.0,500.0,,,,,,,,,,,
59,,html-keyboard-response,59,62925,0.0-3.0-39.0,,"<div class=""container"" style=""position: absolute; left: 50%; top: 50%; transform: translate(-50%, -50%); width: 579.5999999999999px; height: 528.5px;""><div id=""black-distractor-element"" class=""box"" style=""position: absolute; left: 166.5333333333333px; top: 41.7px; width: 40px; height: 80px; background-color: black;""></div><div id=""black-distractor-element"" class=""box"" style=""position: absolute; left: 373.0666666666666px; top: 41.7px; width: 40px; height: 80px; background-color: black;""></div><div id=""black-distractor-element"" class=""box"" style=""position: absolute; left: 166.5333333333333px; top: 163.4px; width: 40px; height: 80px; background-color: black;""></div><div id=""black-distractor-element"" class=""box"" style=""position: absolute; left: 373.0666666666666px; top: 163.4px; width: 40px; height: 80px; background-color: black;""></div><div id=""black-distractor-element"" class=""box"" style=""position: absolute; left: 166.5333333333333px; top: 285.1px; width: 40px; height: 80px; background-color: black;""></div><div id=""black-distractor-element"" class=""box"" style=""position: absolute; left: 373.0666666666666px; top: 285.1px; width: 40px; height: 80px; background-color: black;""></div><div id=""black-distractor-element"" class=""box"" style=""position: absolute; left: 166.5333333333333px; top: 406.8px; width: 40px; height: 80px; background-color: black;""></div><div id=""black-distractor-element"" class=""box"" style=""position: absolute; left: 373.0666666666666px; top: 406.8px; width: 40px; height: 80px; background-color: black;""></div></div>",,test_trial,2000.0,,test,0.0,1500.0,"['.', ',']",0.0,8.0,feature,",",,,,,,
60,,html-keyboard-response,60,63138,0.0-3.0-40.0,,<div class = centerbox><div class = fixation>+</div></div>,,test_ITI,207.2532417053936,,test,0.0,207.2532417053936,,,,,,,"{'min': 0, 'max': 5, 'mean': 0.5}",,,,
61,,html-keyboard-response,61,63643,0.0-3.0-41.0,,"<div class=""centerbox""><div class=""fixation"">+</div></div>",,test_fixation,500.0,,test,0.0,500.0,,,,,,,,,,,
62,,html-keyboard-response,62,65644,0.0-3.0-42.0,,"<div class=""container"" style=""position: absolute; left: 50%; top: 50%; transform: translate(-50%, -50%); width: 579.5999999999999px; height: 528.5px;""><div id=""white-distractor-element""  class=""box"" style=""position: absolute; left: 83.91999999999999px; top: 6.928571428571429px; width: 40px; height: 80px; background-color: white; transform: rotate(90deg); transform-origin: center;""></div><div id=""white-distractor-element""  class=""box"" style=""position: absolute; left: 207.83999999999997px; top: 6.928571428571429px; width: 40px; height: 80px; background-color: white; transform: rotate(90deg); transform-origin: center;""></div><div id=""white-distractor-element""  class=""box"" style=""position: absolute; left: 331.76px; top: 6.928571428571429px; width: 40px; height: 80px; background-color: white; transform: rotate(90deg); transform-origin: center;""></div><div id=""black-distractor-element""  class=""box"" style=""position: absolute; left: 455.67999999999995px; top: 6.928571428571429px; width: 40px; height: 80px; background-color: black;""></div><div id=""white-distractor-element""  class=""box"" style=""position: absolute; left: 83.91999999999999px; top: 93.85714285714286px; width: 40px; height: 80px; background-color: white; transform: rotate(90deg); transform-origin: center;""></div><div id=""black-distractor-element""  class=""box"" style=""position: absolute; left: 207.83999999999997px; top: 93.85714285714286px; width: 40px; height: 80px; background-color: black;""></div><div id=""white-distractor-element""  class=""box"" style=""position: absolute; left: 331.76px; top: 93.85714285714286px; width: 40px; height: 80px; background-color: white; transform: rotate(90deg); transform-origin: center;""></div><div id=""black-distractor-element""  class=""box"" style=""position: absolute; left: 455.67999999999995px; top: 93.85714285714286px; width: 40px; height: 80px; background-color: black;""></div><div id=""white-distractor-element""  class=""box"" style=""position: absolute; left: 83.91999999999999px; top: 180.78571428571428px; width: 40px; height: 80px; background-color: white; transform: rotate(90deg); transform-origin: center;""></div><div id=""white-distractor-element""  class=""box"" style=""position: absolute; left: 207.83999999999997px; top: 180.78571428571428px; width: 40px; height: 80px; background-color: white; transform: rotate(90deg); transform-origin: center;""></div><div id=""black-distractor-element""  class=""box"" style=""position: absolute; left: 331.76px; top: 180.78571428571428px; width: 40px; height: 80px; background-color: black;""></div><div id=""white-distractor-element""  class=""box"" style=""position: absolute; left: 455.67999999999995px; top: 180.78571428571428px; width: 40px; height: 80px; background-color: white; transform: rotate(90deg); transform-origin: center;""></div><div id=""white-distractor-element""  class=""box"" style=""position: absolute; left: 83.91999999999999px; top: 267.7142857142857px; width: 40px; height: 80px; background-color: white; transform: rotate(90deg); transform-origin: center;""></div><div id=""white-distractor-element""  class=""box"" style=""position: absolute; left: 207.83999999999997px; top: 267.7142857142857px; width: 40px; height: 80px; background-color: white; transform: rotate(90deg); transform-origin: center;""></div><div id=""black-distractor-element""  class=""box"" style=""position: absolute; left: 331.76px; top: 267.7142857142857px; width: 40px; height: 80px; background-color: black;""></div><div id=""white-distractor-element""  class=""box"" style=""position: absolute; left: 455.67999999999995px; top: 267.7142857142857px; width: 40px; height: 80px; background-color: white; transform: rotate(90deg); transform-origin: center;""></div><div id=""white-distractor-element""  class=""box"" style=""position: absolute; left: 83.91999999999999px; top: 354.64285714285717px; width: 40px; height: 80px; background-color: white; transform: rotate(90deg); transform-origin: center;""></div><div id=""white-distractor-element""  class=""box"" style=""position: absolute; left: 207.83999999999997px; top: 354.64285714285717px; width: 40px; height: 80px; background-color: white; transform: rotate(90deg); transform-origin: center;""></div><div id=""black-distractor-element""  class=""box"" style=""position: absolute; left: 331.76px; top: 354.64285714285717px; width: 40px; height: 80px; background-color: black;""></div><div id=""white-distractor-element""  class=""box"" style=""position: absolute; left: 455.67999999999995px; top: 354.64285714285717px; width: 40px; height: 80px; background-color: white; transform: rotate(90deg); transform-origin: center;""></div><div id=""white-distractor-element""  class=""box"" style=""position: absolute; left: 83.91999999999999px; top: 441.57142857142856px; width: 40px; height: 80px; background-color: white; transform: rotate(90deg); transform-origin: center;""></div><div id=""black-distractor-element""  class=""box"" style=""position: absolute; left: 207.83999999999997px; top: 441.57142857142856px; width: 40px; height: 80px; background-color: black;""></div><div id=""white-distractor-element""  class=""box"" style=""position: absolute; left: 331.76px; top: 441.57142857142856px; width: 40px; height: 80px; background-color: white; transform: rotate(90deg); transform-origin: center;""></div><div id=""target"" class=""box"" style=""position: absolute; left: 455.67999999999995px; top: 441.57142857142856px; width: 40px; height: 80px; background-color: white;""></div></div>",,test_trial,2000.0,,test,0.0,1500.0,"['.', ',']",1.0,24.0,conjunction,.,,,,,,
63,,html-keyboard-response,63,66202,0.0-3.0-43.0,,<div class = centerbox><div class = fixation>+</div></div>,,test_ITI,556.1175837139871,,test,0.0,556.1175837139871,,,,,,,"{'min': 0, 'max': 5, 'mean': 0.5}",,,,
64,,html-keyboard-response,64,66706,0.0-3.0-44.0,,"<div class=""centerbox""><div class=""fixation"">+</div></div>",,test_fixation,500.0,,test,0.0,500.0,,,,,,,,,,,
65,,html-keyboard-response,65,68709,0.0-3.0-45.0,,"<div class=""container"" style=""position: absolute; left: 50%; top: 50%; transform: translate(-50%, -50%); width: 579.5999999999999px; height: 528.5px;""><div id=""black-distractor-element"" class=""box"" style=""position: absolute; left: 83.91999999999999px; top: 6.928571428571429px; width: 40px; height: 80px; background-color: black;""></div><div id=""black-distractor-element"" class=""box"" style=""position: absolute; left: 207.83999999999997px; top: 6.928571428571429px; width: 40px; height: 80px; background-color: black;""></div><div id=""black-distractor-element"" class=""box"" style=""position: absolute; left: 331.76px; top: 6.928571428571429px; width: 40px; height: 80px; background-color: black;""></div><div id=""black-distractor-element"" class=""box"" style=""position: absolute; left: 455.67999999999995px; top: 6.928571428571429px; width: 40px; height: 80px; background-color: black;""></div><div id=""black-distractor-element"" class=""box"" style=""position: absolute; left: 83.91999999999999px; top: 93.85714285714286px; width: 40px; height: 80px; background-color: black;""></div><div id=""black-distractor-element"" class=""box"" style=""position: absolute; left: 207.83999999999997px; top: 93.85714285714286px; width: 40px; height: 80px; background-color: black;""></div><div id=""black-distractor-element"" class=""box"" style=""position: absolute; left: 331.76px; top: 93.85714285714286px; width: 40px; height: 80px; background-color: black;""></div><div id=""black-distractor-element"" class=""box"" style=""position: absolute; left: 455.67999999999995px; top: 93.85714285714286px; width: 40px; height: 80px; background-color: black;""></div><div id=""black-distractor-element"" class=""box"" style=""position: absolute; left: 83.91999999999999px; top: 180.78571428571428px; width: 40px; height: 80px; background-color: black;""></div><div id=""black-distractor-element"" class=""box"" style=""position: absolute; left: 207.83999999999997px; top: 180.78571428571428px; width: 40px; height: 80px; background-color: black;""></div><div id=""black-distractor-element"" class=""box"" style=""position: absolute; left: 331.76px; top: 180.78571428571428px; width: 40px; height: 80px; background-color: black;""></div><div id=""black-distractor-element"" class=""box"" style=""position: absolute; left: 455.67999999999995px; top: 180.78571428571428px; width: 40px; height: 80px; background-color: black;""></div><div id=""black-distractor-element"" class=""box"" style=""position: absolute; left: 83.91999999999999px; top: 267.7142857142857px; width: 40px; height: 80px; background-color: black;""></div><div id=""black-distractor-element"" class=""box"" style=""position: absolute; left: 207.83999999999997px; top: 267.7142857142857px; width: 40px; height: 80px; background-color: black;""></div><div id=""black-distractor-element"" class=""box"" style=""position: absolute; left: 331.76px; top: 267.7142857142857px; width: 40px; height: 80px; background-color: black;""></div><div id=""black-distractor-element"" class=""box"" style=""position: absolute; left: 455.67999999999995px; top: 267.7142857142857px; width: 40px; height: 80px; background-color: black;""></div><div id=""black-distractor-element"" class=""box"" style=""position: absolute; left: 83.91999999999999px; top: 354.64285714285717px; width: 40px; height: 80px; background-color: black;""></div><div id=""black-distractor-element"" class=""box"" style=""position: absolute; left: 207.83999999999997px; top: 354.64285714285717px; width: 40px; height: 80px; background-color: black;""></div><div id=""black-distractor-element"" class=""box"" style=""position: absolute; left: 331.76px; top: 354.64285714285717px; width: 40px; height: 80px; background-color: black;""></div><div id=""black-distractor-element"" class=""box"" style=""position: absolute; left: 455.67999999999995px; top: 354.64285714285717px; width: 40px; height: 80px; background-color: black;""></div><div id=""black-distractor-element"" class=""box"" style=""position: absolute; left: 83.91999999999999px; top: 441.57142857142856px; width: 40px; height: 80px; background-color: black;""></div><div id=""black-distractor-element"" class=""box"" style=""position: absolute; left: 207.83999999999997px; top: 441.57142857142856px; width: 40px; height: 80px; background-color: black;""></div><div id=""black-distractor-element"" class=""box"" style=""position: absolute; left: 331.76px; top: 441.57142857142856px; width: 40px; height: 80px; background-color: black;""></div><div id=""black-distractor-element"" class=""box"" style=""position: absolute; left: 455.67999999999995px; top: 441.57142857142856px; width: 40px; height: 80px; background-color: black;""></div></div>",,test_trial,2000.0,,test,0.0,1500.0,"['.', ',']",0.0,24.0,feature,",",,,,,,
66,,html-keyboard-response,66,68826,0.0-3.0-46.0,,<div class = centerbox><div class = fixation>+</div></div>,,test_ITI,113.92694270467118,,test,0.0,113.92694270467118,,,,,,,"{'min': 0, 'max': 5, 'mean': 0.5}",,,,
67,,html-keyboard-response,67,69333,0.0-3.0-47.0,,"<div class=""centerbox""><div class=""fixation"">+</div></div>",,test_fixation,500.0,,test,0.0,500.0,,,,,,,,,,,
68,,html-keyboard-response,68,71337,0.0-3.0-48.0,,"<div class=""container"" style=""position: absolute; left: 50%; top: 50%; transform: translate(-50%, -50%); width: 579.5999999999999px; height: 528.5px;""><div id=""black-distractor-element""  class=""box"" style=""position: absolute; left: 166.5333333333333px; top: 41.7px; width: 40px; height: 80px; background-color: black;""></div><div id=""white-distractor-element""  class=""box"" style=""position: absolute; left: 373.0666666666666px; top: 41.7px; width: 40px; height: 80px; background-color: white; transform: rotate(90deg); transform-origin: center;""></div><div id=""black-distractor-element""  class=""box"" style=""position: absolute; left: 166.5333333333333px; top: 163.4px; width: 40px; height: 80px; background-color: black;""></div><div id=""white-distractor-element""  class=""box"" style=""position: absolute; left: 373.0666666666666px; top: 163.4px; width: 40px; height: 80px; background-color: white; transform: rotate(90deg); transform-origin: center;""></div><div id=""target"" class=""box"" style=""position: absolute; left: 166.5333333333333px; top: 285.1px; width: 40px; height: 80px; background-color: white;""></div><div id=""black-distractor-element""  class=""box"" style=""position: absolute; left: 373.0666666666666px; top: 285.1px; width: 40px; height: 80px; background-color: black;""></div><div id=""black-distractor-element""  class=""box"" style=""position: absolute; left: 166.5333333333333px; top: 406.8px; width: 40px; height: 80px; background-color: black;""></div><div id=""black-distractor-element""  class=""box"" style=""position: absolute; left: 373.0666666666666px; top: 406.8px; width: 40px; height: 80px; background-color: black;""></div></div>",,test_trial,2000.0,,test,0.0,1500.0,"['.', ',']",1.0,8.0,conjunction,.,,,,,,
69,,html-keyboard-response,69,71537,0.0-3.0-49.0,,<div class = centerbox><div class = fixation>+</div></div>,,test_ITI,198.45313859192936,,test,0.0,198.45313859192936,,,,,,,"{'min': 0, 'max': 5, 'mean': 0.5}",,,,
70,,html-keyboard-response,70,72042,0.0-3.0-50.0,,"<div class=""centerbox""><div class=""fixation"">+</div></div>",,test_fixation,500.0,,test,0.0,500.0,,,,,,,,,,,
71,,html-keyboard-response,71,74048,0.0-3.0-51.0,,"<div class=""container"" style=""position: absolute; left: 50%; top: 50%; transform: translate(-50%, -50%); width: 579.5999999999999px; height: 528.5px;""><div id=""black-distractor-element"" class=""box"" style=""position: absolute; left: 166.5333333333333px; top: 41.7px; width: 40px; height: 80px; background-color: black;""></div><div id=""black-distractor-element"" class=""box"" style=""position: absolute; left: 373.0666666666666px; top: 41.7px; width: 40px; height: 80px; background-color: black;""></div><div id=""black-distractor-element"" class=""box"" style=""position: absolute; left: 166.5333333333333px; top: 163.4px; width: 40px; height: 80px; background-color: black;""></div><div id=""black-distractor-element"" class=""box"" style=""position: absolute; left: 373.0666666666666px; top: 163.4px; width: 40px; height: 80px; background-color: black;""></div><div id=""black-distractor-element"" class=""box"" style=""position: absolute; left: 166.5333333333333px; top: 285.1px; width: 40px; height: 80px; background-color: black;""></div><div id=""black-distractor-element"" class=""box"" style=""position: absolute; left: 373.0666666666666px; top: 285.1px; width: 40px; height: 80px; background-color: black;""></div><div id=""black-distractor-element"" class=""box"" style=""position: absolute; left: 166.5333333333333px; top: 406.8px; width: 40px; height: 80px; background-color: black;""></div><div id=""black-distractor-element"" class=""box"" style=""position: absolute; left: 373.0666666666666px; top: 406.8px; width: 40px; height: 80px; background-color: black;""></div></div>",,test_trial,2000.0,,test,0.0,1500.0,"['.', ',']",0.0,8.0,feature,",",,,,,,
72,,html-keyboard-response,72,75005,0.0-3.0-52.0,,<div class = centerbox><div class = fixation>+</div></div>,,test_ITI,952.335639762609,,test,0.0,952.335639762609,,,,,,,"{'min': 0, 'max': 5, 'mean': 0.5}",,,,
73,,html-keyboard-response,73,75509,0.0-3.0-53.0,,"<div class=""centerbox""><div class=""fixation"">+</div></div>",,test_fixation,500.0,,test,0.0,500.0,,,,,,,,,,,
74,,html-keyboard-response,74,77516,0.0-3.0-54.0,,"<div class=""container"" style=""position: absolute; left: 50%; top: 50%; transform: translate(-50%, -50%); width: 579.5999999999999px; height: 528.5px;""><div id=""white-distractor-element""  class=""box"" style=""position: absolute; left: 166.5333333333333px; top: 41.7px; width: 40px; height: 80px; background-color: white; transform: rotate(90deg); transform-origin: center;""></div><div id=""white-distractor-element""  class=""box"" style=""position: absolute; left: 373.0666666666666px; top: 41.7px; width: 40px; height: 80px; background-color: white; transform: rotate(90deg); transform-origin: center;""></div><div id=""black-distractor-element""  class=""box"" style=""position: absolute; left: 166.5333333333333px; top: 163.4px; width: 40px; height: 80px; background-color: black;""></div><div id=""white-distractor-element""  class=""box"" style=""position: absolute; left: 373.0666666666666px; top: 163.4px; width: 40px; height: 80px; background-color: white; transform: rotate(90deg); transform-origin: center;""></div><div id=""black-distractor-element""  class=""box"" style=""position: absolute; left: 166.5333333333333px; top: 285.1px; width: 40px; height: 80px; background-color: black;""></div><div id=""black-distractor-element""  class=""box"" style=""position: absolute; left: 373.0666666666666px; top: 285.1px; width: 40px; height: 80px; background-color: black;""></div><div id=""white-distractor-element""  class=""box"" style=""position: absolute; left: 166.5333333333333px; top: 406.8px; width: 40px; height: 80px; background-color: white; transform: rotate(90deg); transform-origin: center;""></div><div id=""white-distractor-element""  class=""box"" style=""position: absolute; left: 373.0666666666666px; top: 406.8px; width: 40px; height: 80px; background-color: white; transform: rotate(90deg); transform-origin: center;""></div></div>",,test_trial,2000.0,,test,0.0,1500.0,"['.', ',']",0.0,8.0,conjunction,",",,,,,,
75,,html-keyboard-response,75,77569,0.0-3.0-55.0,,<div class = centerbox><div class = fixation>+</div></div>,,test_ITI,46.529221041234045,,test,0.0,46.529221041234045,,,,,,,"{'min': 0, 'max': 5, 'mean': 0.5}",,,,
76,,html-keyboard-response,76,78074,0.0-3.0-56.0,,"<div class=""centerbox""><div class=""fixation"">+</div></div>",,test_fixation,500.0,,test,0.0,500.0,,,,,,,,,,,
77,,html-keyboard-response,77,80081,0.0-3.0-57.0,,"<div class=""container"" style=""position: absolute; left: 50%; top: 50%; transform: translate(-50%, -50%); width: 579.5999999999999px; height: 528.5px;""><div id=""black-distractor-element"" class=""box"" style=""position: absolute; left: 166.5333333333333px; top: 41.7px; width: 40px; height: 80px; background-color: black;""></div><div id=""black-distractor-element"" class=""box"" style=""position: absolute; left: 373.0666666666666px; top: 41.7px; width: 40px; height: 80px; background-color: black;""></div><div id=""target"" class=""box"" style=""position: absolute; left: 166.5333333333333px; top: 163.4px; width: 40px; height: 80px; background-color: white;""></div><div id=""black-distractor-element"" class=""box"" style=""position: absolute; left: 373.0666666666666px; top: 163.4px; width: 40px; height: 80px; background-color: black;""></div><div id=""black-distractor-element"" class=""box"" style=""position: absolute; left: 166.5333333333333px; top: 285.1px; width: 40px; height: 80px; background-color: black;""></div><div id=""black-distractor-element"" class=""box"" style=""position: absolute; left: 373.0666666666666px; top: 285.1px; width: 40px; height: 80px; background-color: black;""></div><div id=""black-distractor-element"" class=""box"" style=""position: absolute; left: 166.5333333333333px; top: 406.8px; width: 40px; height: 80px; background-color: black;""></div><div id=""black-distractor-element"" class=""box"" style=""position: absolute; left: 373.0666666666666px; top: 406.8px; width: 40px; height: 80px; background-color: black;""></div></div>",,test_trial,2000.0,,test,0.0,1500.0,"['.', ',']",1.0,8.0,feature,.,,,,,,
78,,html-keyboard-response,78,80105,0.0-3.0-58.0,,<div class = centerbox><div class = fixation>+</div></div>,,test_ITI,22.135389671166003,,test,0.0,22.135389671166003,,,,,,,"{'min': 0, 'max': 5, 'mean': 0.5}",,,,
79,,html-keyboard-response,79,80609,0.0-3.0-59.0,,"<div class=""centerbox""><div class=""fixation"">+</div></div>",,test_fixation,500.0,,test,0.0,500.0,,,,,,,,,,,
80,,html-keyboard-response,80,82615,0.0-3.0-60.0,,"<div class=""container"" style=""position: absolute; left: 50%; top: 50%; transform: translate(-50%, -50%); width: 579.5999999999999px; height: 528.5px;""><div id=""black-distractor-element"" class=""box"" style=""position: absolute; left: 83.91999999999999px; top: 6.928571428571429px; width: 40px; height: 80px; background-color: black;""></div><div id=""black-distractor-element"" class=""box"" style=""position: absolute; left: 207.83999999999997px; top: 6.928571428571429px; width: 40px; height: 80px; background-color: black;""></div><div id=""black-distractor-element"" class=""box"" style=""position: absolute; left: 331.76px; top: 6.928571428571429px; width: 40px; height: 80px; background-color: black;""></div><div id=""black-distractor-element"" class=""box"" style=""position: absolute; left: 455.67999999999995px; top: 6.928571428571429px; width: 40px; height: 80px; background-color: black;""></div><div id=""black-distractor-element"" class=""box"" style=""position: absolute; left: 83.91999999999999px; top: 93.85714285714286px; width: 40px; height: 80px; background-color: black;""></div><div id=""black-distractor-element"" class=""box"" style=""position: absolute; left: 207.83999999999997px; top: 93.85714285714286px; width: 40px; height: 80px; background-color: black;""></div><div id=""black-distractor-element"" class=""box"" style=""position: absolute; left: 331.76px; top: 93.85714285714286px; width: 40px; height: 80px; background-color: black;""></div><div id=""black-distractor-element"" class=""box"" style=""position: absolute; left: 455.67999999999995px; top: 93.85714285714286px; width: 40px; height: 80px; background-color: black;""></div><div id=""black-distractor-element"" class=""box"" style=""position: absolute; left: 83.91999999999999px; top: 180.78571428571428px; width: 40px; height: 80px; background-color: black;""></div><div id=""black-distractor-element"" class=""box"" style=""position: absolute; left: 207.83999999999997px; top: 180.78571428571428px; width: 40px; height: 80px; background-color: black;""></div><div id=""black-distractor-element"" class=""box"" style=""position: absolute; left: 331.76px; top: 180.78571428571428px; width: 40px; height: 80px; background-color: black;""></div><div id=""black-distractor-element"" class=""box"" style=""position: absolute; left: 455.67999999999995px; top: 180.78571428571428px; width: 40px; height: 80px; background-color: black;""></div><div id=""black-distractor-element"" class=""box"" style=""position: absolute; left: 83.91999999999999px; top: 267.7142857142857px; width: 40px; height: 80px; background-color: black;""></div><div id=""black-distractor-element"" class=""box"" style=""position: absolute; left: 207.83999999999997px; top: 267.7142857142857px; width: 40px; height: 80px; background-color: black;""></div><div id=""black-distractor-element"" class=""box"" style=""position: absolute; left: 331.76px; top: 267.7142857142857px; width: 40px; height: 80px; background-color: black;""></div><div id=""black-distractor-element"" class=""box"" style=""position: absolute; left: 455.67999999999995px; top: 267.7142857142857px; width: 40px; height: 80px; background-color: black;""></div><div id=""black-distractor-element"" class=""box"" style=""position: absolute; left: 83.91999999999999px; top: 354.64285714285717px; width: 40px; height: 80px; background-color: black;""></div><div id=""black-distractor-element"" class=""box"" style=""position: absolute; left: 207.83999999999997px; top: 354.64285714285717px; width: 40px; height: 80px; background-color: black;""></div><div id=""black-distractor-element"" class=""box"" style=""position: absolute; left: 331.76px; top: 354.64285714285717px; width: 40px; height: 80px; background-color: black;""></div><div id=""black-distractor-element"" class=""box"" style=""position: absolute; left: 455.67999999999995px; top: 354.64285714285717px; width: 40px; height: 80px; background-color: black;""></div><div id=""black-distractor-element"" class=""box"" style=""position: absolute; left: 83.91999999999999px; top: 441.57142857142856px; width: 40px; height: 80px; background-color: black;""></div><div id=""black-distractor-element"" class=""box"" style=""position: absolute; left: 207.83999999999997px; top: 441.57142857142856px; width: 40px; height: 80px; background-color: black;""></div><div id=""black-distractor-element"" class=""box"" style=""position: absolute; left: 331.76px; top: 441.57142857142856px; width: 40px; height: 80px; background-color: black;""></div><div id=""black-distractor-element"" class=""box"" style=""position: absolute; left: 455.67999999999995px; top: 441.57142857142856px; width: 40px; height: 80px; background-color: black;""></div></div>",,test_trial,2000.0,,test,0.0,1500.0,"['.', ',']",0.0,24.0,feature,",",,,,,,
81,,html-keyboard-response,81,83436,0.0-3.0-61.0,,<div class = centerbox><div class = fixation>+</div></div>,,test_ITI,815.034440472633,,test,0.0,815.034440472633,,,,,,,"{'min': 0, 'max': 5, 'mean': 0.5}",,,,
82,,html-keyboard-response,82,83944,0.0-3.0-62.0,,"<div class=""centerbox""><div class=""fixation"">+</div></div>",,test_fixation,500.0,,test,0.0,500.0,,,,,,,,,,,
83,,html-keyboard-response,83,85951,0.0-3.0-63.0,,"<div class=""container"" style=""position: absolute; left: 50%; top: 50%; transform: translate(-50%, -50%); width: 579.5999999999999px; height: 528.5px;""><div id=""black-distractor-element"" class=""box"" style=""position: absolute; left: 83.91999999999999px; top: 6.928571428571429px; width: 40px; height: 80px; background-color: black;""></div><div id=""black-distractor-element"" class=""box"" style=""position: absolute; left: 207.83999999999997px; top: 6.928571428571429px; width: 40px; height: 80px; background-color: black;""></div><div id=""black-distractor-element"" class=""box"" style=""position: absolute; left: 331.76px; top: 6.928571428571429px; width: 40px; height: 80px; background-color: black;""></div><div id=""black-distractor-element"" class=""box"" style=""position: absolute; left: 455.67999999999995px; top: 6.928571428571429px; width: 40px; height: 80px; background-color: black;""></div><div id=""target"" class=""box"" style=""position: absolute; left: 83.91999999999999px; top: 93.85714285714286px; width: 40px; height: 80px; background-color: white;""></div><div id=""black-distractor-element"" class=""box"" style=""position: absolute; left: 207.83999999999997px; top: 93.85714285714286px; width: 40px; height: 80px; background-color: black;""></div><div id=""black-distractor-element"" class=""box"" style=""position: absolute; left: 331.76px; top: 93.85714285714286px; width: 40px; height: 80px; background-color: black;""></div><div id=""black-distractor-element"" class=""box"" style=""position: absolute; left: 455.67999999999995px; top: 93.85714285714286px; width: 40px; height: 80px; background-color: black;""></div><div id=""black-distractor-element"" class=""box"" style=""position: absolute; left: 83.91999999999999px; top: 180.78571428571428px; width: 40px; height: 80px; background-color: black;""></div><div id=""black-distractor-element"" class=""box"" style=""position: absolute; left: 207.83999999999997px; top: 180.78571428571428px; width: 40px; height: 80px; background-color: black;""></div><div id=""black-distractor-element"" class=""box"" style=""position: absolute; left: 331.76px; top: 180.78571428571428px; width: 40px; height: 80px; background-color: black;""></div><div id=""black-distractor-element"" class=""box"" style=""position: absolute; left: 455.67999999999995px; top: 180.78571428571428px; width: 40px; height: 80px; background-color: black;""></div><div id=""black-distractor-element"" class=""box"" style=""position: absolute; left: 83.91999999999999px; top: 267.7142857142857px; width: 40px; height: 80px; background-color: black;""></div><div id=""black-distractor-element"" class=""box"" style=""position: absolute; left: 207.83999999999997px; top: 267.7142857142857px; width: 40px; height: 80px; background-color: black;""></div><div id=""black-distractor-element"" class=""box"" style=""position: absolute; left: 331.76px; top: 267.7142857142857px; width: 40px; height: 80px; background-color: black;""></div><div id=""black-distractor-element"" class=""box"" style=""position: absolute; left: 455.67999999999995px; top: 267.7142857142857px; width: 40px; height: 80px; background-color: black;""></div><div id=""black-distractor-element"" class=""box"" style=""position: absolute; left: 83.91999999999999px; top: 354.64285714285717px; width: 40px; height: 80px; background-color: black;""></div><div id=""black-distractor-element"" class=""box"" style=""position: absolute; left: 207.83999999999997px; top: 354.64285714285717px; width: 40px; height: 80px; background-color: black;""></div><div id=""black-distractor-element"" class=""box"" style=""position: absolute; left: 331.76px; top: 354.64285714285717px; width: 40px; height: 80px; background-color: black;""></div><div id=""black-distractor-element"" class=""box"" style=""position: absolute; left: 455.67999999999995px; top: 354.64285714285717px; width: 40px; height: 80px; background-color: black;""></div><div id=""black-distractor-element"" class=""box"" style=""position: absolute; left: 83.91999999999999px; top: 441.57142857142856px; width: 40px; height: 80px; background-color: black;""></div><div id=""black-distractor-element"" class=""box"" style=""position: absolute; left: 207.83999999999997px; top: 441.57142857142856px; width: 40px; height: 80px; background-color: black;""></div><div id=""black-distractor-element"" class=""box"" style=""position: absolute; left: 331.76px; top: 441.57142857142856px; width: 40px; height: 80px; background-color: black;""></div><div id=""black-distractor-element"" class=""box"" style=""position: absolute; left: 455.67999999999995px; top: 441.57142857142856px; width: 40px; height: 80px; background-color: black;""></div></div>",,test_trial,2000.0,,test,0.0,1500.0,"['.', ',']",1.0,24.0,feature,.,,,,,,
84,,html-keyboard-response,84,86831,0.0-3.0-64.0,,<div class = centerbox><div class = fixation>+</div></div>,,test_ITI,878.9347689184033,,test,0.0,878.9347689184033,,,,,,,"{'min': 0, 'max': 5, 'mean': 0.5}",,,,
85,,html-keyboard-response,85,87338,0.0-3.0-65.0,,"<div class=""centerbox""><div class=""fixation"">+</div></div>",,test_fixation,500.0,,test,0.0,500.0,,,,,,,,,,,
